loggingTime,loggingSample,locationTimestamp_since1970,locationLatitude,locationLongitude,locationAltitude,locationSpeed,locationSpeedAccuracy,locationCourse,locationCourseAccuracy,locationVerticalAccuracy,locationHorizontalAccuracy,locationFloor,locationHeadingTimestamp_since1970,locationHeadingX,locationHeadingY,locationHeadingZ,locationTrueHeading,locationMagneticHeading,locationHeadingAccuracy,accelerometerTimestamp_sinceReboot,accelerometerAccelerationX,accelerometerAccelerationY,accelerometerAccelerationZ,gyroTimestamp_sinceReboot,gyroRotationX,gyroRotationY,gyroRotationZ,magnetometerTimestamp_sinceReboot,magnetometerX,magnetometerY,magnetometerZ,motionTimestamp_sinceReboot,motionYaw,motionRoll,motionPitch,motionRotationRateX,motionRotationRateY,motionRotationRateZ,motionUserAccelerationX,motionUserAccelerationY,motionUserAccelerationZ,motionAttitudeReferenceFrame,motionQuaternionX,motionQuaternionY,motionQuaternionZ,motionQuaternionW,motionGravityX,motionGravityY,motionGravityZ,motionMagneticFieldX,motionMagneticFieldY,motionMagneticFieldZ,motionHeading,motionMagneticFieldCalibrationAccuracy,activityTimestamp_sinceReboot,activity,activityActivityConfidence,activityActivityStartDate,pedometerStartDate,pedometerNumberofSteps,pedometerAverageActivePace,pedometerCurrentPace,pedometerCurrentCadence,pedometerDistance,pedometerFloorAscended,pedometerFloorDescended,pedometerEndDate,altimeterTimestamp_sinceReboot,altimeterReset,altimeterRelativeAltitude,altimeterPressure,IP_Timestamp_since1970,IP_en0,IP_pdp_ip0,deviceID,deviceOrientationTimeStamp_since1970,deviceOrientation,batteryTimeStamp_since1970,batteryState,batteryLevel,label
1676669838.955268,1,1676669835.678652,34.21412558773279,-118.3864093768145,243.9025,-1,-1,-1,-1,4.190784454345703,7.856033639443082,-1,1676669838.950505,17.32965850830078,14.90431213378906,-35.38418579101562,350.6524658203125,339.013671875,12.67826557159424,1677557.394807542,0.2288818359375,-0.2365264892578125,-0.9491729736328125,1677557.394807542,0.05736928433179855,-0.3618303835391998,-0.1244077086448669,1677557.377325542,-119.2085571289062,103.3931427001953,-326.6178894042969,1677557.358707542,0.09369901184793798,0.2393769424642536,0.2281641069772822,-0.02966382727026939,-0.06271062791347504,-0.04325561225414276,-0.009456023573875427,0.009392768144607544,0.003925323486328125,2,0.1073407856583307,0.123789605771407,0.059772364928528,0.9846732382355217,0.2309526056051254,-0.226189598441124,-0.9463081955909729,17.53766632080078,15.02346038818359,-35.72930908203125,-1,2,1677557.308914542,2,0,1676669838.8634,0,0,0,0,0,0,0,0,0,1677554.913251,0,0.06077576,98.57774,1676669838.938333,167772201,182416158,0,0,1,1676669838.911374,1,0.4,1
1676669839.014831,2,1676669835.678652,34.21412558773279,-118.3864093768145,243.9025,-1,-1,-1,-1,4.190784454345703,7.856033639443082,-1,1676669839.010246,16.80671691894531,15.43413543701172,-36.34619140625,351.3263244628906,339.6875305175781,12.67828750610352,1677557.454559542,0.197265625,-0.23223876953125,-0.95538330078125,1677557.454559542,-0.03695615381002426,-0.2641107439994812,-0.1078388467431068,1677557.437386542,-119.8766937255859,103.960205078125,-327.2685852050781,1677557.418459542,0.08629433290337356,0.2232500558559226,0.2290312476070778,0.06508722901344299,-0.4289188981056213,-0.1693556308746338,0.02009904384613037,-0.007493346929550171,0.002421736717224121,2,0.1086753294513452,0.1154588043401421,0.05530115139276198,0.9857994749185378,0.2156187146902084,-0.2270341813564301,-0.9497178792953491,17.21337890625,15.06331634521484,-35.67337036132812,-1,2,1677557.308914542,2,0,1676669838.8634,0,0,0,0,0,0,0,0,0,1677554.913251,0,0.06077576,98.57774,1676669838.938333,167772201,182416158,0,0,1,1676669838.911374,1,0.4,1
1676669839.074575,3,1676669835.678652,34.21412558773279,-118.3864093768145,243.9025,-1,-1,-1,-1,4.190784454345703,7.856033639443082,-1,1676669839.069649,15.88753509521484,15.15785980224609,-36.50283813476562,351.4644470214844,339.8256530761719,12.6783618927002,1677557.514311542,0.2025909423828125,-0.2056427001953125,-0.9730224609375,1677557.514311542,0.04347157850861549,0.1584682017564774,0.08362618833780289,1677557.497446542,-120.5962066650391,104.1889953613281,-326.8580017089844,1677557.478212542,0.0794806131488888,0.2078076281849983,0.226117857012111,-0.1186042577028275,-0.07564617693424225,-0.05589151009917259,-0.006467923521995544,-0.01353597640991211,-0.02155083417892456,2,0.1080268405836011,0.1074315121215254,0.05095522712287576,0.9870116888672158,0.2010632455348969,-0.2241958975791931,-0.9535773396492004,16.03945922851562,15.43788909912109,-36.66738891601562,-1,2,1677557.308914542,2,0,1676669838.8634,0,0,0,0,0,0,0,0,0,1677555.913827,0,0.07926941,98.57754,1676669838.938333,167772201,182416158,0,0,1,1676669838.911374,1,0.4,1
1676669839.134343,4,1676669835.678652,34.21412558773279,-118.3864093768145,243.9025,-1,-1,-1,-1,4.190784454345703,7.856033639443082,-1,1676669839.129831,16.57997894287109,15.32961273193359,-36.8035888671875,351.4525451660156,339.8137512207031,12.67846393585205,1677557.574064542,0.1766357421875,-0.2468719482421875,-0.966094970703125,1677557.574064542,-0.00449754623696208,-0.2799954414367676,0.07667533308267593,1677557.557510542,-120.7474517822266,103.7028503417969,-327.3895874023438,1677557.537964542,0.08003520546841311,0.211566892827737,0.2271379030054229,0.1859813332557678,0.03948508948087692,0.01469836756587029,-0.04811958968639374,-0.0303947776556015,-0.0372469425201416,2,0.1084043217529072,0.1093305392695627,0.05148299157092034,0.9867343663274142,0.2045984417200089,-0.2251898646354675,-0.9525906443595886,16.32984924316406,15.38285827636719,-36.14523315429688,-1,2,1677557.308914542,2,0,1676669838.8634,0,0,0,0,0,0,0,0,0,1677555.913827,0,0.07926941,98.57754,1676669838.938333,167772201,182416158,0,0,1,1676669838.911374,1,0.4,1
1676669839.193978,5,1676669835.678652,34.21412558773279,-118.3864093768145,243.9025,-1,-1,-1,-1,4.190784454345703,7.856033639443082,-1,1676669839.189154,15.62359619140625,15.320068359375,-36.68792724609375,351.257080078125,339.6182861328125,12.67853164672852,1677557.633816542,0.1774139404296875,-0.260345458984375,-0.925262451171875,1677557.633816542,-0.1302442848682404,-0.1252857446670532,0.01638136990368366,1677557.617570542,-120.9105072021484,104.0927886962891,-327.3385620117188,1677557.597716542,0.08209853709566885,0.2016925812180499,0.2306267301380072,-0.05106237530708313,-0.1404492855072021,0.1085969060659409,-0.01208625733852386,0.05659069120883942,0.07176989316940308,2,0.1102729194120096,0.1046203210767489,0.05213184163479889,0.9870039078316881,0.1950238645076752,-0.2285877019166946,-0.9537889361381531,16.06018829345703,15.40956878662109,-36.340576171875,-1,2,1677557.308914542,2,0,1676669838.8634,0,0,0,0,0,0,0,0,0,1677555.913827,0,0.07926941,98.57754,1676669838.938333,167772201,182416158,0,0,1,1676669838.911374,1,0.4,1
1676669839.253875,6,1676669835.678652,34.21412558773279,-118.3864093768145,243.9025,-1,-1,-1,-1,4.190784454345703,7.856033639443082,-1,1676669839.249372,15.45111846923828,15.60269165039062,-36.5755615234375,351.1222839355469,339.4834899902344,12.67861652374268,1677557.693568542,0.1781768798828125,-0.196441650390625,-0.9544525146484375,1677557.693568542,-0.2286337167024612,-0.1849056631326675,0.1289657056331635,1677557.677628542,-121.2443084716797,104.1194610595703,-327.9610900878906,1677557.657468542,0.08541354207545941,0.192912285626649,0.2240237435028725,-0.2418883442878723,-0.1563011109828949,0.01496255490928888,-0.03336276113986969,0.01159863173961639,0.02514708042144775,2,0.1070708373952795,0.1003658819794651,0.05298415445400645,0.9877526376182479,0.1869272142648697,-0.2221546024084091,-0.9569250345230103,15.50843048095703,15.24623107910156,-36.82028198242188,-1,2,1677557.308914542,2,0,1676669838.8634,0,0,0,0,0,0,0,0,0,1677555.913827,0,0.07926941,98.57754,1676669838.938333,167772201,182416158,0,0,1,1676669838.911374,1,0.4,1
1676669839.313542,7,1676669835.678652,34.21412558773279,-118.3864093768145,243.9025,-1,-1,-1,-1,4.190784454345703,7.856033639443082,-1,1676669839.308703,15.76708221435547,15.62179565429688,-36.60089111328125,349.9953002929688,338.3565063476562,12.67872047424316,1677557.753320542,0.2194976806640625,-0.1566009521484375,-1.017913818359375,1677557.753320542,-0.03295235708355904,0.2107774764299393,0.5855489373207092,1677557.737688542,-121.2319641113281,104.2907104492188,-327.50244140625,1677557.717221542,0.0938960879577956,0.1810425578765248,0.2125934161336055,-0.05867887660861015,-0.1097135245800018,0.2290592640638351,-0.006995275616645813,0.05772115290164948,-0.004064738750457764,2,0.1013273488076796,0.09474726205196494,0.05605518112613661,0.9887433630348751,0.1760016083717346,-0.2109956443309784,-0.9615114331245422,14.97665405273438,15.58605194091797,-36.60067749023438,-1,2,1677557.308914542,2,0,1676669838.8634,0,0,0,0,0,0,0,0,0,1677555.913827,0,0.07926941,98.57754,1676669838.938333,167772201,182416158,0,0,1,1676669838.911374,1,0.4,1
1676669839.373446,8,1676669839.172251,34.21416130780695,-118.3864208137508,246.5355,0,2.049374,-1,-1,10.61956061772579,18.74279267270661,-9999,1676669839.368783,16.24506378173828,15.31781768798828,-36.25482177734375,347.8229064941406,336.1841125488281,12.67885398864746,1677557.813073542,0.217071533203125,-0.18902587890625,-0.894256591796875,1677557.813073542,-0.2184343338012695,-0.03945233300328255,0.5724025368690491,1677557.797747542,-120.0847320556641,104.1921539306641,-327.2206420898438,1677557.776973542,0.1247539629924448,0.1835390241891473,0.2159768010599142,-0.1387607604265213,0.2090691775083542,0.6358643174171448,0.05088634788990021,0.01824153959751129,0.01305031776428223,2,0.1014371063379094,0.09762003951231953,0.07157035991371313,0.9874504629104923,0.1782701313495636,-0.2143016308546066,-0.960361659526825,16.19136810302734,15.65769958496094,-36.42108154296875,-1,2,1677557.308914542,2,0,1676669838.8634,0,0,0,0,0,0,0,0,0,1677555.913827,0,0.07926941,98.57754,1676669838.938333,167772201,182416158,0,0,1,1676669838.911374,1,0.4,1
1676669839.433279,9,1676669839.172251,34.21416130780695,-118.3864208137508,246.5355,0,2.049374,-1,-1,10.61956061772579,18.74279267270661,-9999,1676669839.428239,17.06602478027344,15.07470703125,-35.92291259765625,345.9541320800781,334.3153381347656,12.67899227142334,1677557.872825542,0.046142578125,-0.3072357177734375,-1.012741088867188,1677557.872825542,-0.4635940194129944,0.9351122975349426,-0.1765529364347458,1677557.857806542,-120.1532897949219,103.3848724365234,-327.1560363769531,1677557.836725542,0.1640804829812866,0.1753209251955973,0.2104277725602311,-0.2253856211900711,-0.1690133213996887,0.7288167476654053,0.00416700541973114,0.01464918255805969,0.09075802564620972,2,0.09713000648735129,0.09534441908270462,0.09034553843431598,0.9865662359254256,0.1705766469240189,-0.2088782489299774,-0.9629504084587097,16.45519256591797,15.12671661376953,-36.1663818359375,-1,2,1677557.308914542,2,0,1676669838.8634,0,0,0,0,0,0,0,0,0,1677555.913827,0,0.07926941,98.57754,1676669838.938333,167772201,182416158,0,0,1,1676669838.911374,1,0.4,1
1676669839.492964,10,1676669839.172251,34.21416130780695,-118.3864208137508,246.5355,0,2.049374,-1,-1,10.61956061772579,18.74279267270661,-9999,1676669839.488028,18.36171722412109,15.84117889404297,-35.10198974609375,346.1913452148438,334.5525512695312,12.67913246154785,1677557.932577542,0.1803436279296875,-0.27337646484375,-0.911468505859375,1677557.932577542,-0.3649742305278778,0.5415742993354797,0.2283713817596436,1677557.917870542,-118.3202362060547,104.6800994873047,-326.193115234375,1677557.896477542,0.1737873499970615,0.1975753902193746,0.190765790131319,0.01781252026557922,-0.007257946766912937,-0.4775820076465607,-0.1671273410320282,-0.02532440423965454,-0.2416185736656189,2,0.08589604058612313,0.1060332755457847,0.09532633838628463,0.9860484820535483,0.1927315890789032,-0.1896108537912369,-0.9627576470375061,17.22850036621094,15.4339599609375,-35.51809692382812,-1,2,1677557.308914542,2,0,1676669838.8634,0,0,0,0,0,0,0,0,0,1677555.913827,0,0.07926941,98.57754,1676669838.938333,167772201,182416158,0,0,1,1676669838.911374,1,0.4,1
1676669839.552675,11,1676669839.172251,34.21416130780695,-118.3864208137508,246.5355,0,2.049374,-1,-1,10.61956061772579,18.74279267270661,-9999,1676669839.547756,19.68095397949219,16.9439697265625,-33.7384033203125,345.4259948730469,333.7872009277344,12.67927646636963,1677557.992329542,0.281524658203125,-0.167022705078125,-0.8945465087890625,1677557.992329542,-0.6655652523040771,0.4976974129676819,-0.1188528835773468,1677557.977931542,-117.1573181152344,105.2098083496094,-325.1364135742188,1677557.956229542,0.182531077643777,0.2317724170505915,0.1760637107687738,-0.4950510859489441,0.7265639305114746,0.1637818515300751,-0.001206815242767334,0.02368155121803284,0.08976095914840698,2,0.07646774754102786,0.1226589194693929,0.1003004530224233,0.9844020360283069,0.2261518836021423,-0.1751555055379868,-0.9582149386405945,18.59438323974609,15.88362121582031,-34.7237548828125,-1,2,1677557.946271542,4,2,1676669839.500757,0,0,0,0,0,0,0,0,0,1677555.913827,0,0.07926941,98.57754,1676669838.938333,167772201,182416158,0,0,1,1676669838.911374,1,0.4,1
1676669839.612483,12,1676669839.172251,34.21416130780695,-118.3864208137508,246.5355,0,2.049374,-1,-1,10.61956061772579,18.74279267270661,-9999,1676669839.607841,20.47182464599609,18.38146209716797,-32.40875244140625,345.6086730957031,333.9698791503906,12.67941284179688,1677558.052082542,0.312469482421875,-0.126495361328125,-0.840423583984375,1677558.052082542,-0.2520013451576233,0.7698266506195068,-0.1476869285106659,1677558.037993542,-116.3785095214844,106.6499633789062,-323.6897583007812,1677558.015982542,0.1893154681549304,0.2632815069736946,0.1390367469001604,-0.6257396936416626,0.3637014627456665,-0.1489327698945999,0.01717862486839294,-0.0309053510427475,0.06161612272262573,2,0.05617677914541814,0.1368661681654557,0.1025492305587988,0.9836642705165038,0.2577389478683472,-0.1385892182588577,-0.9562236666679382,19.93934631347656,17.33290100097656,-33.88595581054688,-1,2,1677557.946271542,4,2,1676669839.500757,0,0,0,0,0,0,0,0,0,1677555.913827,0,0.07926941,98.57754,1676669838.938333,167772201,182416158,0,0,1,1676669838.911374,1,0.4,1
1676669839.672135,13,1676669839.172251,34.21416130780695,-118.3864208137508,246.5355,0,2.049374,-1,-1,10.61956061772579,18.74279267270661,-9999,1676669839.66711,23.08761596679688,17.65447235107422,-31.3736572265625,344.8973999023438,333.2586059570312,12.67948436737061,1677558.111834542,0.42681884765625,-0.1934051513671875,-0.7939910888671875,1677558.111834542,1.009001731872559,1.530797719955444,0.4148704409599304,1677558.098051542,-113.8444366455078,106.7995758056641,-322.2511596679688,1677558.075734542,0.1872897368618471,0.3062325169253681,0.1201760997184992,0.2678961455821991,1.320462703704834,0.1447712779045105,-0.005013257265090942,-0.0980389267206192,0.2212726473808289,2,0.04485330270508781,0.1571260083747369,0.1013661990420877,0.9813380616888057,0.2992942333221436,-0.119887039065361,-0.9465991854667664,20.94260406494141,18.47195434570312,-32.34292602539062,-1,2,1677557.946271542,4,2,1676669839.500757,0,0,0,0,0,0,0,0,0,1677555.913827,0,0.07926941,98.57754,1676669838.938333,167772201,182416158,0,0,1,1676669838.911374,1,0.4,1
1676669839.73205,14,1676669839.172251,34.21416130780695,-118.3864208137508,246.5355,0,2.049374,-1,-1,10.61956061772579,18.74279267270661,-9999,1676669839.726936,26.59697723388672,15.51344299316406,-29.63671875,344.7333068847656,333.0945129394531,12.67954158782959,1677558.171586875,0.541748046875,-0.082489013671875,-0.9204559326171875,1677558.171586875,0.4592964947223663,1.715496182441711,-0.2749072015285492,1677558.158112875,-110.9214019775391,104.1657867431641,-321.1227722167969,1677558.135486875,0.1887072689993551,0.3960511319435017,0.1740250291134638,1.236842513084412,1.543118238449097,0.1661776304244995,0.1001817286014557,0.02525985240936279,0.06573057174682617,2,0.06636052002315841,0.2031452592846514,0.1090436882888907,0.9707922615862212,0.3799512982368469,-0.173147976398468,-0.9086565971374512,24.41927337646484,17.07763671875,-30.49404907226562,-1,2,1677557.946271542,4,2,1676669839.500757,0,0,0,0,0,0,0,0,0,1677555.913827,0,0.07926941,98.57754,1676669838.938333,167772201,182416158,0,0,1,1676669838.911374,1,0.4,1
1676669839.791622,15,1676669839.172251,34.21416130780695,-118.3864208137508,246.5355,0,2.049374,-1,-1,10.61956061772579,18.74279267270661,-9999,1676669839.786784,28.92131042480469,16.65054321289062,-26.9443359375,345.0361328125,333.3973388671875,12.67954635620117,1677558.231338875,0.66680908203125,-0.19879150390625,-0.8968658447265625,1677558.231338875,-0.8268020749092102,0.8712068200111389,-0.6263749599456787,1677558.218174875,-107.8811187744141,105.3683319091797,-317.757568359375,1677558.195239875,0.1659182129785241,0.4958691744429859,0.2020270899909344,-0.1693146675825119,1.299973607063293,-0.2545153796672821,0.09195542335510254,0.04004164040088654,-0.07069087028503418,2,0.07719068950491868,0.2514122690098453,0.1045823447544967,0.9591120132041502,0.4661194980144501,-0.200655609369278,-0.8616669178009033,27.46741485595703,15.51544952392578,-28.42599487304688,-1,2,1677557.946271542,4,2,1676669839.500757,0,0,0,0,0,0,0,0,0,1677555.913827,0,0.07926941,98.57754,1676669838.938333,167772201,182416158,0,0,1,1676669838.911374,1,0.4,1
1676669839.851568,16,1676669839.172251,34.21416130780695,-118.3864208137508,246.5355,0,2.049374,-1,-1,10.61956061772579,18.74279267270661,-9999,1676669839.846482,28.97972106933594,18.62117767333984,-25.75076293945312,344.9776611328125,333.3388671875,12.67952537536621,1677558.291091875,0.5249176025390625,-0.1344451904296875,-0.670379638671875,1677558.291091875,-1.126742720603943,0.5060823559761047,0.0127964885905385,1677558.278233875,-107.4365844726562,107.2463531494141,-316.1320190429688,1677558.254991875,0.1669247714278404,0.5532130583190343,0.1536084976301474,-0.9539659023284912,0.3253734409809113,-0.3577299118041992,-0.009700417518615723,-0.08223956823348999,-0.02769261598587036,2,0.05085578412773996,0.277493240248618,0.1008413163134009,0.9540661334966171,0.5192371010780334,-0.1530051231384277,-0.8408223986625671,29.12245941162109,17.38363647460938,-26.47952270507812,-1,2,1677557.946271542,4,2,1676669839.500757,0,0,0,0,0,0,0,0,0,1677555.913827,0,0.07926941,98.57754,1676669838.938333,167772201,182416158,0,0,1,1676669838.911374,1,0.4,1
1676669839.911168,17,1676669839.172251,34.21416130780695,-118.3864208137508,246.5355,0,2.049374,-1,-1,10.61956061772579,18.74279267270661,-9999,1676669839.906312,30.49491882324219,20.09328460693359,-22.84320068359375,344.8055725097656,333.1667785644531,12.67952537536621,1677558.350843875,0.5299835205078125,-0.119476318359375,-0.7341461181640625,1677558.350843875,-0.04098445177078247,1.359872937202454,-0.2720317840576172,1677558.338292875,-106.6005249023438,108.8116455078125,-314.3901977539062,1677558.314743875,0.1945607942247961,0.5801486111008478,0.09531471187972906,-0.8521520495414734,1.247484445571899,-0.2718002498149872,0.08196431398391724,-0.0235733836889267,0.1954083442687988,2,0.01768417405702649,0.2887816730270896,0.1065251992126556,0.9512857693312493,0.5456601977348328,-0.09517045319080353,-0.8325848579406738,29.30128479003906,19.14565277099609,-24.7061767578125,-1,2,1677557.946271542,4,2,1676669839.500757,0,0,0,0,0,0,0,0,0,1677555.913827,0,0.07926941,98.57754,1676669838.938333,167772201,182416158,0,0,1,1676669838.911374,1,0.4,1
1676669839.970993,18,1676669839.172251,34.21416130780695,-118.3864208137508,246.5355,0,2.049374,-1,-1,10.61956061772579,18.74279267270661,-9999,1676669839.966219,32.55332183837891,19.47041320800781,-20.87847900390625,344.4991455078125,332.8603515625,12.67951107025146,1677558.410595875,0.4437713623046875,-0.284423828125,-0.7399444580078125,1677558.410595875,0.7842887043952942,0.8445611000061035,0.5759552121162415,1677558.398354875,-104.0173950195312,108.7171173095703,-311.4921264648438,1677558.374495875,0.1908536404720848,0.657879466523986,0.07747817790961971,0.2643003463745117,1.379781603813171,0.04696216806769371,-0.1255514621734619,-0.09374186396598816,-0.00646287202835083,2,0.005729376926215918,0.3248211646229999,0.1025601063358408,0.9401807325499427,0.6096059679985046,-0.07740068435668945,-0.7889167666435242,31.22689056396484,20.2369384765625,-21.90545654296875,-1,2,1677557.946271542,4,2,1676669839.500757,0,0,0,0,0,0,0,0,0,1677555.913827,0,0.07926941,98.57754,1676669838.938333,167772201,182416158,0,0,1,1676669838.911374,1,0.4,1
1676669840.030806,19,1676669839.172251,34.21416130780695,-118.3864208137508,246.5355,0,2.049374,-1,-1,10.61956061772579,18.74279267270661,-9999,1676669840.025716,32.90851593017578,16.19129943847656,-21.88992309570312,343.0465698242188,331.4077758789062,12.67947387695312,1677558.470347875,0.973541259765625,-0.08587646484375,-0.9733123779296875,1677558.470347875,1.637532949447632,-0.5202812552452087,0.2180356532335281,1677558.458415875,-104.0308074951172,104.8576354980469,-312.5686645507812,1677558.434248875,0.1900554276395265,0.7116267328730322,0.1294767755036562,1.161580443382263,-0.05775217711925507,1.101763248443604,-0.188539445400238,-0.1321761310100555,0.0899050235748291,2,0.0273832810743633,0.3518087101220873,0.1111895758362631,0.9290412054755863,0.6476001143455505,-0.1291153132915497,-0.7509616017341614,33.35386657714844,18.72897338867188,-20.728271484375,-1,2,1677557.946271542,4,2,1676669839.500757,0,0,0,0,0,0,0,0,0,1677555.913827,0,0.07926941,98.57754,1676669838.938333,167772201,182416158,0,0,1,1676669838.911374,1,0.4,1
1676669840.090445,20,1676669839.172251,34.21416130780695,-118.3864208137508,246.5355,0,2.049374,-1,-1,10.61956061772579,18.74279267270661,-9999,1676669840.085872,33.79529571533203,15.88802337646484,-22.29483032226562,345.0331726074219,333.3943786621094,12.67947769165039,1677558.530100875,0.56219482421875,-0.3744964599609375,-0.8775482177734375,1677558.530100875,-0.2781676948070526,0.5030583143234253,-0.4295372664928436,1677558.518480875,-102.8345031738281,104.7421569824219,-313.0606079101562,1677558.494000875,0.1547231511850911,0.7049916120570793,0.2118456779676832,0.8669986724853516,0.8363934755325317,-0.6268517971038818,0.2219434976577759,0.07729965448379517,-0.2270280122756958,2,0.07239527480573835,0.3499479847512942,0.1085174216661907,0.9276418121598724,0.6335404515266418,-0.2102646678686142,-0.7445906400680542,33.07221221923828,15.3201904296875,-22.7933349609375,-1,2,1677557.946271542,4,2,1676669839.500757,0,0,0,0,0,0,0,0,0,1677556.914406,0,0.07926941,98.57754,1676669838.938333,167772201,182416158,0,0,1,1676669838.911374,1,0.4,1
1676669840.150037,21,1676669839.172251,34.21416130780695,-118.3864208137508,246.5355,0,2.049374,-1,-1,10.61956061772579,18.74279267270661,-9999,1676669840.145222,33.37452697753906,17.30741882324219,-21.31048583984375,345.0528259277344,333.4140319824219,12.67943572998047,1677558.589852875,0.714874267578125,-0.21435546875,-0.7982177734375,1677558.530100875,-0.2781676948070526,0.5030583143234253,-0.4295372664928436,1677558.578544875,-103.5002136230469,106.1677703857422,-312.208984375,1677558.553752875,0.1388508233994854,0.7422181925326912,0.1894451991913441,-0.6589678525924683,-0.09279999136924744,-0.2645862698554993,-0.03185802698135376,-0.1725104600191116,-0.1488490700721741,2,0.06288606699550536,0.3662682791241748,0.09857467246015456,0.9231337198176723,0.6638312339782715,-0.1883140504360199,-0.7237857580184937,34.11324310302734,16.49201202392578,-20.97415161132812,-1,2,1677557.946271542,4,2,1676669839.500757,0,0,0,0,0,0,0,0,0,1677556.914406,0,0.07926941,98.57754,1676669838.938333,167772201,182416158,0,0,1,1676669838.911374,1,0.4,1
1676669840.209777,22,1676669839.172251,34.21416130780695,-118.3864208137508,246.5355,0,2.049374,-1,-1,10.61956061772579,18.74279267270661,-9999,1676669840.205231,32.63832855224609,18.80072784423828,-20.97381591796875,345.3975830078125,333.7587890625,12.67940330505371,1677558.649604875,0.5175628662109375,-0.278778076171875,-0.7182464599609375,1677558.649604875,-0.6459188461303711,0.3529774844646454,-0.1605473309755325,1677558.638609875,-104.1941375732422,107.4924926757812,-311.6924133300781,1677558.613505875,0.1591985861865232,0.720302478545086,0.139485999771528,-0.7819836139678955,-0.380550891160965,-0.4762910604476929,-0.05240607261657715,-0.08179101347923279,0.01760649681091309,2,0.03705483061358675,0.3556315262631275,0.09871379876078312,0.9286595838152835,0.6532056331634521,-0.1390341222286224,-0.7443063259124756,32.83311462402344,18.02890777587891,-21.15667724609375,-1,2,1677557.946271542,4,2,1676669839.500757,0,0,0,0,0,0,0,0,0,1677556.914406,0,0.07926941,98.57754,1676669838.938333,167772201,182416158,0,0,1,1676669838.911374,1,0.4,1
1676669840.269563,23,1676669839.172251,34.21416130780695,-118.3864208137508,246.5355,0,2.049374,-1,-1,10.61956061772579,18.74279267270661,-9999,1676669840.264866,33.27345275878906,20.09960174560547,-19.46847534179688,345.3839416503906,333.7451477050781,12.67935562133789,1677558.709357875,0.695220947265625,-0.1232147216796875,-0.6587066650390625,1677558.709357875,0.08928140997886658,0.5622920989990234,-0.427232027053833,1677558.698669875,-103.2980651855469,108.9732513427734,-310.19140625,1677558.673257875,0.175576255409955,0.7284890867381058,0.1002193541574731,-0.466799259185791,0.538366436958313,-0.07725033164024353,0.02366316318511963,-0.06050124019384384,0.01614910364151001,2,0.01542771931919976,0.3585296598735582,0.09959554528568892,0.9280619513084368,0.6624023914337158,-0.1000516712665558,-0.742436945438385,32.81430816650391,19.58039855957031,-20.10348510742188,-1,2,1677557.946271542,4,2,1676669839.500757,0,0,0,0,0,0,0,0,0,1677556.914406,0,0.07926941,98.57754,1676669838.938333,167772201,182416158,0,0,1,1676669838.911374,1,0.4,1
1676669840.329491,24,1676669840.172254,34.21416130780695,-118.3864208137508,246.5355,0,1.755983,-1,-1,10.59718656617862,17.37108871021224,-9999,1676669840.328618,33.29795074462891,20.70378875732422,-17.83718872070312,347.1438598632812,335.5050659179688,12.67934989929199,1677558.769109875,0.690216064453125,-0.029022216796875,-0.390869140625,1677558.769109875,0.5614470839500427,1.817262768745422,-0.6638821363449097,1677558.758730875,-103.5129547119141,109.3781280517578,-308.3298950195312,1677558.733009875,0.1646466514192546,0.7649428206766632,0.08420236667261062,0.1675543040037155,0.860624372959137,-0.4517476558685303,-0.05785542726516724,-0.04721418023109436,0.1012665033340454,2,0.008253017712487876,0.3748318190562054,0.09187615828393547,0.9224920946502819,0.69004225730896,-0.08410289883613586,-0.7188659906387329,33.27313995361328,20.60634613037109,-18.50503540039062,-1,2,1677557.946271542,4,2,1676669839.500757,0,0,0,0,0,0,0,0,0,1677556.914406,0,0.07926941,98.57754,1676669838.938333,167772201,182416158,0,0,1,1676669838.911374,1,0.4,1
1676669840.389027,25,1676669840.172254,34.21416130780695,-118.3864208137508,246.5355,0,1.755983,-1,-1,10.59718656617862,17.37108871021224,-9999,1676669840.384342,35.25917053222656,21.70230865478516,-13.81680297851562,352.3028869628906,340.6640930175781,12.67964935302734,1677558.828861875,0.8376922607421875,0.1376800537109375,-0.285552978515625,1677558.828861875,1.705961108207703,3.430338859558105,-1.741053819656372,1677558.818788875,-101.3365783691406,110.5418090820312,-304.2433776855469,1677558.792761875,0.1176884566078334,0.8674941989760899,0.07671248759948826,1.029198408126831,2.642617702484131,-0.9857094287872314,-0.05650341510772705,0.188179075717926,0.3930982351303101,2,0.01003735191727026,0.4212842070453884,0.06941331591513888,0.904212719437405,0.7604676485061646,-0.07663726806640625,-0.6448377370834351,34.21126556396484,20.6741943359375,-16.31365966796875,-1,2,1677557.946271542,4,2,1676669839.500757,0,0,0,0,0,0,0,0,0,1677556.914406,0,0.07926941,98.57754,1676669838.938333,167772201,182416158,0,0,1,1676669838.911374,1,0.4,1
1676669840.448934,26,1676669840.172254,34.21416130780695,-118.3864208137508,246.5355,0,1.755983,-1,-1,10.59718656617862,17.37108871021224,-9999,1676669840.444067,35.21341705322266,24.8182373046875,-9.13153076171875,1.580318450927734,349.9415283203125,12.68003940582275,1677558.888614875,1.056243896484375,0.0821533203125,-0.9449920654296875,1677558.888614875,0.008878978900611401,0.8784220814704895,-2.166801691055298,1677558.878847875,-101.6331939697266,113.8961486816406,-299.7406616210938,1677558.852514875,-0.008148583577781397,1.071052559523155,0.04885623030743811,1.547604560852051,3.187416315078735,-2.168975353240967,0.08427941799163818,0.1869593858718872,-0.05579501390457153,2,0.02308437986595172,0.5100516514586229,0.008961334489469175,0.8597872212535882,0.876658022403717,-0.04883679747581482,-0.4786288440227509,35.96250152587891,22.75029754638672,-11.3353271484375,-1,2,1677557.946271542,4,2,1676669839.500757,0,0,0,0,0,0,0,0,0,1677556.914406,0,0.07926941,98.57754,1676669838.938333,167772201,182416158,0,0,1,1676669838.911374,1,0.4,1
1676669840.511748,27,1676669840.172254,34.21416130780695,-118.3864208137508,246.5355,0,1.755983,-1,-1,10.59718656617862,17.37108871021224,-9999,1676669840.503818,31.57826995849609,29.35826873779297,-8.300994873046875,4.705745697021484,353.0669555664062,12.68023490905762,1677558.948366875,1.156021118164062,0.070892333984375,-0.75335693359375,1677558.948366875,-2.192484140396118,-1.525653123855591,-1.525403499603271,1677558.938904875,-105.4340362548828,118.4228057861328,-299.1865234375,1677558.912266875,-0.07402551298589997,1.151084231604473,-0.06058241549053074,-1.31548535823822,-0.7473087906837463,-1.986609101295471,0.1771377921104431,-0.08437955379486084,-0.5526463985443115,2,-0.005258104546705389,0.5446075382796641,-0.04750195493067727,0.8373281834558023,0.9115309119224548,0.06054536253213882,-0.406749963760376,33.63554382324219,27.01310729980469,-8.42633056640625,-1,2,1677557.946271542,4,2,1676669839.500757,0,0,0,0,0,0,0,0,0,1677556.914406,0,0.07926941,98.57754,1676669838.938333,167772201,182416158,0,0,1,1676669838.911374,1,0.4,1
1676669840.568531,28,1676669840.172254,34.21416130780695,-118.3864208137508,246.5355,0,1.755983,-1,-1,10.59718656617862,17.37108871021224,-9999,1676669840.563608,28.63986206054688,32.66204071044922,-7.34912109375,5.338253021240234,353.699462890625,12.68034744262695,1677559.008118875,0.7261199951171875,0.1337432861328125,-0.34234619140625,1677559.008118875,-0.269659698009491,-0.4480462372303009,-0.7866604924201965,1677558.998956875,-108.1755981445312,121.5175018310547,-298.3338623046875,1677558.972018875,-0.008026759667944085,1.078759140310837,-0.1998320050479453,-1.573019504547119,-1.287895441055298,-1.258025169372559,0.02618163824081421,-0.2557556629180908,-0.07057878375053406,2,-0.08353641826922181,0.5113815768320914,-0.05465789779828178,0.8535355045401978,0.8638328313827515,0.1985046863555908,-0.4630210995674133,29.71771240234375,31.59503173828125,-7.482666015625,-1,2,1677557.946271542,4,2,1676669839.500757,0,0,0,0,0,0,0,0,0,1677556.914406,0,0.07926941,98.57754,1676669838.938333,167772201,182416158,0,0,1,1676669838.911374,1,0.4,1
1676669840.628315,29,1676669840.172254,34.21416130780695,-118.3864208137508,246.5355,0,1.755983,-1,-1,10.59718656617862,17.37108871021224,-9999,1676669840.623457,26.61469268798828,34.04364013671875,-7.0662841796875,7.910549163818359,356.2717590332031,12.68033218383789,1677559.067871875,0.9583892822265625,0.2655181884765625,-0.681488037109375,1677559.067871875,-0.3809377551078796,0.1283316016197205,-1.111454010009766,1677559.059014875,-110.2807769775391,122.8080749511719,-297.9642944335938,1677559.031771875,-0.001007537599824274,1.040114815036151,-0.2668881109200643,-0.2969831526279449,-0.1821878105401993,-0.9770738482475281,0.1253321170806885,-0.05607417225837708,-0.1372856795787811,2,-0.1152100022559859,0.4925701460738514,-0.06654900084947102,0.86004207919839,0.8319278955459595,0.2637310028076172,-0.4882026016712189,27.39098358154297,33.60824584960938,-7.436248779296875,-1,2,1677557.946271542,4,2,1676669839.500757,0,0,0,0,0,0,0,0,0,1677556.914406,0,0.07926941,98.57754,1676669838.938333,167772201,182416158,0,0,1,1676669838.911374,1,0.4,1
1676669840.687894,30,1676669840.172254,34.21416130780695,-118.3864208137508,246.5355,0,1.755983,-1,-1,10.59718656617862,17.37108871021224,-9999,1676669840.683349,24.83473968505859,35.60324859619141,-7.478729248046875,10.23876571655273,358.5999755859375,12.68031597137451,1677559.127623875,0.74835205078125,0.0563812255859375,-0.4706573486328125,1677559.127623875,0.5032474398612976,-0.7723172307014465,-0.8240427374839783,1677559.119069875,-112.0088806152344,124.4977569580078,-298.4193725585938,1677559.091523875,-0.01197370650815606,1.033967280939897,-0.3304196004852056,-0.08254284411668777,-0.477056473493576,-0.6660107970237732,0.3567665815353394,0.132881224155426,-0.297149658203125,2,-0.1400454357073526,0.4883774962077035,-0.08641778395707267,0.8569752971863309,0.8128500580787659,0.3244399726390839,-0.4837493896484375,25.42528533935547,34.99666595458984,-6.971771240234375,-1,2,1677557.946271542,4,2,1676669839.500757,0,0,0,0,0,0,0,0,0,1677556.914406,0,0.07926941,98.57754,1676669838.938333,167772201,182416158,0,0,1,1676669838.911374,1,0.4,1
1676669840.749277,31,1676669840.172254,34.21416130780695,-118.3864208137508,246.5355,0,1.755983,-1,-1,10.59718656617862,17.37108871021224,-9999,1676669840.742966,23.81705474853516,36.55801391601562,-6.493011474609375,11.754075050354,0.1152851358056068,12.68030166625977,1677559.187375625,0.93310546875,-0.1064300537109375,-0.4646759033203125,1677559.187375625,-0.1502406299114227,1.299509167671204,0.4821645021438599,1677559.179125625,-112.9114990234375,125.408447265625,-296.9756469726562,1677559.151276625,-0.04901285592507342,0.9865734288821986,-0.3593294237719108,-0.03245335817337036,0.1977090537548065,-0.6628833413124084,-0.01736277341842651,-0.2792893648147583,0.1164534687995911,2,-0.1459316482884515,0.4696182400299062,-0.105828301243889,0.8642702448840698,0.7808667421340942,0.3516465723514557,-0.5163253545761108,24.14155578613281,36.14752197265625,-7.919891357421875,-1,2,1677557.946271542,4,2,1676669839.500757,0,0,0,0,0,0,0,0,0,1677556.914406,0,0.07926941,98.57754,1676669838.938333,167772201,182416158,0,0,1,1676669838.911374,1,0.4,1
1676669840.80752,32,1676669840.172254,34.21416130780695,-118.3864208137508,246.5355,0,1.755983,-1,-1,10.59718656617862,17.37108871021224,-9999,1676669840.802829,25.99221038818359,34.66810607910156,-6.0125732421875,7.257930755615234,355.619140625,12.68032169342041,1677559.247128625,1.064224243164062,-0.0963897705078125,-0.76678466796875,1677559.247128625,-1.043673157691956,-0.8773341774940491,1.453688383102417,1677559.239188625,-110.5699615478516,123.1920776367188,-296.8351745605469,1677559.211028625,-0.02806079467038568,1.045998985821339,-0.3535520258085211,-0.2676765322685242,0.1487049162387848,1.03937840461731,0.2005074620246887,-0.4272412061691284,-0.3075248599052429,2,-0.1454356094773862,0.4937859510000866,-0.09979351773093759,0.8515075509596957,0.811897873878479,0.3462323248386383,-0.4700478315353394,24.62883758544922,36.04873657226562,-6.391845703125,-1,2,1677557.946271542,4,2,1676669839.500757,0,0,0,0,0,0,0,0,0,1677556.914406,0,0.07926941,98.57754,1676669838.938333,167772201,182416158,0,0,1,1676669838.911374,1,0.4,1
1676669840.868119,33,1676669840.172254,34.21416130780695,-118.3864208137508,246.5355,0,1.755983,-1,-1,10.59718656617862,17.37108871021224,-9999,1676669840.862385,29.38638305664062,33.15592956542969,-5.01873779296875,357.1796264648438,345.5408325195312,12.68053340911865,1677559.306880625,1.068740844726562,0.25494384765625,-0.792022705078125,1677559.306880625,-1.184763669967651,-1.41422963142395,2.259109020233154,1677559.299243625,-107.0338134765625,121.7523193359375,-295.8131713867188,1677559.270780625,0.06796819891761761,1.034815027880482,-0.3074676111364053,-1.341387867927551,-1.136270046234131,1.878042817115784,0.1222792267799377,-0.4502594470977783,-0.2246599197387695,2,-0.1496162811911427,0.4839909878861119,-0.04651647068640735,0.8609319609917123,0.81944739818573,0.3026459813117981,-0.4867353737354279,27.61326599121094,34.28507995605469,-5.76068115234375,-1,2,1677557.946271542,4,2,1676669839.500757,0,0,0,0,0,0,0,0,0,1677556.914406,0,0.07926941,98.57754,1676669838.938333,167772201,182416158,0,0,1,1676669838.911374,1,0.4,1
1676669840.92699,34,1676669840.172254,34.21416130780695,-118.3864208137508,246.5355,0,1.755983,-1,-1,10.59718656617862,17.37108871021224,-9999,1676669840.922316,31.53945922851562,30.15719604492188,-7.606597900390625,348.3545837402344,336.7157897949219,12.680832862854,1677559.366633625,0.739532470703125,0.1961822509765625,-0.8896636962890625,1677559.366633625,-0.651378333568573,-2.704155921936035,1.597198605537415,1677559.359302625,-105.2402191162109,118.6711578369141,-298.6705017089844,1677559.330533625,0.2038740629457336,0.9833591743675614,-0.2375063321149637,-0.8508245348930359,-2.294090270996094,1.745566487312317,0.125313401222229,0.04322372376918793,-0.2863715887069702,2,-0.1516013353643376,0.4557208556962769,0.03343215077306655,0.8764802488030935,0.8089973926544189,0.2352796941995621,-0.53867107629776,31.33347320556641,31.57356262207031,-5.44073486328125,-1,2,1677557.946271542,4,2,1676669839.500757,0,0,0,0,0,0,0,0,0,1677556.914406,0,0.07926941,98.57754,1676669838.938333,167772201,182416158,0,0,1,1676669838.911374,1,0.4,1
1676669840.989136,35,1676669840.172254,34.21416130780695,-118.3864208137508,246.5355,0,1.755983,-1,-1,10.59718656617862,17.37108871021224,-9999,1676669840.981874,32.17802429199219,27.39821624755859,-12.02813720703125,341.6482238769531,330.0094299316406,12.68113613128662,1677559.426385625,0.6859130859375,0.3097991943359375,-0.8006744384765625,1677559.426385625,-0.02493704110383987,-2.673028230667114,1.192015409469604,1677559.419360625,-104.4321594238281,115.9601135253906,-303.0500183105469,1677559.390285625,0.2965959170666173,0.8447167216063487,-0.1848645737368354,-0.3474308848381042,-2.663479804992676,1.68181312084198,0.0005539059638977051,0.1111390143632889,-0.1510958671569824,2,-0.1435738011990896,0.3912434029986344,0.09677570867878299,0.9038526857715816,0.7350417375564575,0.1838134229183197,-0.6526303291320801,32.13760375976562,28.77884674072266,-9.938507080078125,-1,2,1677557.946271542,4,2,1676669839.500757,0,0,0,0,0,0,0,0,0,1677556.914406,0,0.07926941,98.57754,1676669838.938333,167772201,182416158,0,0,1,1676669838.911374,1,0.4,1
1676669841.046419,36,1676669840.172254,34.21416130780695,-118.3864208137508,246.5355,0,1.755983,-1,-1,10.59718656617862,17.37108871021224,-9999,1676669841.041633,30.96510314941406,25.12528991699219,-16.485595703125,337.2547607421875,325.615966796875,12.68131065368652,1677559.486137625,0.6507568359375,0.242889404296875,-0.817657470703125,1677559.486137625,0.3232009708881378,-1.945491075515747,1.049156785011292,1677559.479418625,-105.880859375,113.7212066650391,-307.5411987304688,1677559.450037625,0.3577759142535123,0.7016225195193572,-0.1343659273428222,-0.2142359763383865,-2.182148694992065,1.119331002235413,-0.07520216703414917,0.1286570578813553,-0.05413895845413208,2,-0.1230489389182627,0.3261951151121349,0.1440185765604626,0.9261286398565831,0.6396399140357971,0.1339619755744934,-0.7569113969802856,31.55369567871094,26.34329223632812,-14.4034423828125,-1,2,1677557.946271542,4,2,1676669839.500757,0,0,0,0,0,0,0,0,0,1677556.914406,0,0.07926941,98.57754,1676669838.938333,167772201,182416158,0,0,1,1676669838.911374,1,0.4,1
1676669841.110088,37,1676669840.172254,34.21416130780695,-118.3864208137508,246.5355,0,1.755983,-1,-1,10.59718656617862,17.37108871021224,-9999,1676669841.101446,29.53590393066406,22.59309387207031,-21.23822021484375,333.6687622070312,322.0299682617188,12.68146896362305,1677559.545890625,0.5645751953125,0.1790771484375,-0.884552001953125,1677559.545890625,-0.1028310433030128,-1.94680643081665,1.122323751449585,1677559.539479625,-107.3999328613281,111.0671844482422,-312.3793029785156,1677559.509790625,0.402084800409975,0.5898124313849553,-0.08645692977694469,0.4784219563007355,-2.006541728973389,1.092467069625854,0.08007335662841797,0.1332247406244278,-0.03587430715560913,2,-0.09850252526799615,0.2762729809197021,0.1785841164258453,0.9391901062823377,0.5541276931762695,0.08634926378726959,-0.8279410004615784,30.61217498779297,24.36143493652344,-17.9285888671875,-1,2,1677557.946271542,4,2,1676669839.500757,0,0,0,0,0,0,0,0,0,1677556.914406,0,0.07926941,98.57754,1676669838.938333,167772201,182416158,0,0,1,1676669838.911374,1,0.4,1
1676669841.166125,38,1676669840.172254,34.21416130780695,-118.3864208137508,246.5355,0,1.755983,-1,-1,10.59718656617862,17.37108871021224,-9999,1676669841.16121,28.62786865234375,20.60064697265625,-23.5948486328125,329.8757934570312,318.2369995117188,12.68153667449951,1677559.605642625,0.496124267578125,0.090606689453125,-0.727752685546875,1677559.605642625,0.3302359580993652,-0.8013656735420227,1.170842289924622,1677559.599540625,-108.0276641845703,109.2131805419922,-314.4269409179688,1677559.569542625,0.4542904473497626,0.4757879566090569,-0.05077265669375252,-0.1678166538476944,-1.443427801132202,1.075972199440002,0.04545038938522339,0.08805838227272034,0.09704560041427612,2,-0.07708707624039786,0.2239738959409085,0.2129559746359803,0.9479150791742974,0.4574487805366516,0.05075084418058395,-0.8877865672111511,28.90422821044922,22.01639556884766,-22.55746459960938,-1,2,1677557.946271542,4,2,1676669839.500757,0,0,0,0,0,0,0,0,0,1677556.914406,0,0.07926941,98.57754,1676669838.938333,167772201,182416158,0,0,1,1676669838.911374,1,0.4,1
1676669841.229947,39,1676669840.172254,34.21416130780695,-118.3864208137508,246.5355,0,1.755983,-1,-1,10.59718656617862,17.37108871021224,-9999,1676669841.220798,28.65396118164062,18.05535125732422,-25.94485473632812,326.5648193359375,314.926025390625,12.68155288696289,1677559.665395625,0.486541748046875,0.038421630859375,-0.8161773681640625,1677559.665395625,0.2317759692668915,-0.6079826354980469,0.9807718992233276,1677559.659599625,-108.0499877929688,106.6292877197266,-317.0084838867188,1677559.629295625,0.5077349817713955,0.418966291056394,-0.01094614783456302,0.3926692008972168,-0.7252554297447205,1.107562303543091,0.08876770734786987,0.07563246786594391,0.1120483875274658,2,-0.05740864565343084,0.1999415816896688,0.2445535310400992,0.9470591721412126,0.4067919850349426,0.01094592921435833,-0.9134552478790283,28.57271575927734,19.45220947265625,-24.59725952148438,-1,2,1677557.946271542,4,2,1676669839.500757,0,0,0,0,0,0,0,0,0,1677556.914406,0,0.07926941,98.57754,1676669838.938333,167772201,182416158,0,0,1,1676669838.911374,1,0.4,1
1676669841.285485,40,1676669841.122258,34.21416034233551,-118.3864656794398,246.797,0.3386164,1.613574,-1,-1,10.49032262175941,16.55762180203457,-9999,1676669841.280606,27.67639923095703,16.12909698486328,-27.54046630859375,324.8621520996094,313.2233581542969,12.68155479431152,1677559.725147625,0.473388671875,0.0138092041015625,-0.7227783203125,1677559.725147625,0.4932278096675873,-0.9034832715988159,0.311010867357254,1677559.719656625,-109.1515960693359,104.7453765869141,-318.5018920898438,1677559.689047625,0.5513606429289101,0.3768325797044753,0.02718437355540266,0.3689768612384796,-0.9146878719329834,0.6944378614425659,0.1854272484779358,0.1181081980466843,0.1107809543609619,2,-0.03813250828256821,0.1838484871878653,0.269809188325506,0.9444303552933628,0.3678411841392517,-0.02718102559447289,-0.9294912815093994,28.30833435058594,17.09854888916016,-26.62478637695312,-1,2,1677557.946271542,4,2,1676669839.500757,0,0,0,0,0,0,0,0,0,1677556.914406,0,0.07926941,98.57754,1676669838.938333,167772201,182416158,0,0,1,1676669838.911374,1,0.4,1
1676669841.345301,41,1676669841.122258,34.21416034233551,-118.3864656794398,246.797,0.3386164,1.613574,-1,-1,10.49032262175941,16.55762180203457,-9999,1676669841.340282,26.93062591552734,14.79640197753906,-28.93231201171875,324.3137512207031,312.6749572753906,12.6815299987793,1677559.784899625,0.4195404052734375,-0.1023406982421875,-0.7338104248046875,1677559.784899625,0.5466119647026062,-0.3466455638408661,0.3739885091781616,1677559.779720625,-109.7971649169922,103.4898376464844,-319.8400268554688,1677559.748800625,0.5612682751308505,0.3225401954982579,0.06138693611799552,0.4542550146579742,-0.6626949906349182,0.2912231683731079,0.1153676807880402,0.05886125192046165,0.2488471865653992,2,-0.01534640394585182,0.1626071119839517,0.277977399829792,0.946600119626305,0.316379725933075,-0.06134838983416557,-0.9466468095779419,27.12677001953125,15.43935394287109,-28.108642578125,-1,2,1677557.946271542,4,2,1676669839.500757,0,0,0,0,0,0,0,0,0,1677556.914406,0,0.07926941,98.57754,1676669838.938333,167772201,182416158,0,0,1,1676669838.911374,1,0.4,1
1676669841.405079,42,1676669841.122258,34.21416034233551,-118.3864656794398,246.797,0.3386164,1.613574,-1,-1,10.49032262175941,16.55762180203457,-9999,1676669841.400222,26.89173126220703,12.84521484375,-29.1907958984375,322.598388671875,310.9595947265625,12.68156909942627,1677559.844652625,0.4138336181640625,0.0595550537109375,-0.746612548828125,1677559.844652625,0.5334937572479248,0.4187533259391785,0.5093063712120056,1677559.839777625,-109.8143310546875,101.4567565917969,-320.0316162109375,1677559.808552625,0.5708335795680853,0.2989969447700792,0.09706238191159926,0.5479627847671509,-0.1255607008934021,0.6346537470817566,0.04680570960044861,-0.03851165622472763,0.2406699657440186,2,0.004143926643437171,0.1562549978267132,0.2850222695077768,0.9456899609132395,0.2931753396987915,-0.09691004455089569,-0.9511343836784363,26.59478759765625,14.178955078125,-29.36807250976562,-1,2,1677557.946271542,4,2,1676669839.500757,0,0,0,0,0,0,0,0,0,1677556.914406,0,0.07926941,98.57754,1676669838.938333,167772201,182416158,0,0,1,1676669838.911374,1,0.4,1
1676669841.467252,43,1676669841.122258,34.21416034233551,-118.3864656794398,246.797,0.3386164,1.613574,-1,-1,10.49032262175941,16.55762180203457,-9999,1676669841.459935,26.59848022460938,12.42153930664062,-29.9852294921875,322.412841796875,310.7740478515625,12.68154239654541,1677559.904404625,0.238433837890625,-0.215057373046875,-0.903961181640625,1677559.904404625,-0.814489483833313,-0.9046622514724731,0.2212852537631989,1677559.899838625,-110.2451629638672,101.189453125,-320.8577270507812,1677559.868304625,0.5894089783260616,0.3101861075284358,0.1347459967132732,0.201079323887825,-0.2102749347686768,0.004163701087236404,0.2155210375785828,0.09458954632282257,0.04244554042816162,2,0.01888072097570742,0.1667965729762063,0.296270789468937,0.9402371288234754,0.3024690449237823,-0.1343386173248291,-0.9436448216438293,27.22336578369141,12.43043518066406,-29.29876708984375,-1,2,1677557.946271542,4,2,1676669839.500757,0,0,0,0,0,0,0,0,0,1677556.914406,0,0.07926941,98.57754,1676669838.938333,167772201,182416158,0,0,1,1676669838.911374,1,0.4,1
1676669841.524601,44,1676669841.122258,34.21416034233551,-118.3864656794398,246.797,0.3386164,1.613574,-1,-1,10.49032262175941,16.55762180203457,-9999,1676669841.51977,25.99116516113281,13.15180206298828,-29.929931640625,321.5558471679688,309.9170532226562,12.68157577514648,1677559.964157625,0.278106689453125,-0.115386962890625,-0.824798583984375,1677559.964157625,-0.1734343767166138,0.1245179623365402,0.09518270939588547,1677559.959896625,-110.8340301513672,101.9434509277344,-320.71923828125,1677559.928057625,0.6045212337774202,0.2651992963315793,0.1045246304904917,-0.762107789516449,-0.4212046265602112,0.2519675195217133,-0.01466891169548035,-0.02643337100744247,0.2887681126594543,2,0.01012972207872191,0.141459217199407,0.3012564922737765,0.942937539052312,0.2606711089611053,-0.1043344065546989,-0.9597733616828918,26.13528442382812,12.60319519042969,-29.86785888671875,-1,2,1677557.946271542,4,2,1676669839.500757,0,0,0,0,0,0,0,0,0,1677556.914406,0,0.07926941,98.57754,1676669838.938333,167772201,182416158,0,0,1,1676669838.911374,1,0.4,1
1676669841.587982,45,1676669841.122258,34.21416034233551,-118.3864656794398,246.797,0.3386164,1.613574,-1,-1,10.49032262175941,16.55762180203457,-9999,1676669841.579506,25.74791717529297,12.93358612060547,-29.77117919921875,321.955810546875,310.3170166015625,12.68161296844482,1677560.023909625,0.2276611328125,-0.1375274658203125,-0.966796875,1677560.023909625,0.1779092848300934,-0.1297175139188766,-0.2495768070220947,1677560.019950625,-111.0925903320312,101.6635894775391,-320.6270141601562,1677559.987809625,0.613727925286623,0.2624625252919584,0.08972722741040873,0.1818417608737946,-0.03925100713968277,-0.02885350584983826,0.01370945572853088,-0.03372986614704132,0.04417484998703003,2,0.002898227404784084,0.1380475300567484,0.3047664112445793,0.9423650831229946,0.2584157884120941,-0.089606873691082,-0.961868941783905,26.04360198974609,13.34008026123047,-30.08010864257812,-1,2,1677557.946271542,4,2,1676669839.500757,0,0,0,0,0,0,0,0,0,1677556.914406,0,0.07926941,98.57754,1676669838.938333,167772201,182416158,0,0,1,1676669838.911374,1,0.4,1
1676669841.643833,46,1676669841.122258,34.21416034233551,-118.3864656794398,246.797,0.3386164,1.613574,-1,-1,10.49032262175941,16.55762180203457,-9999,1676669841.639059,25.20404815673828,13.39933776855469,-30.09664916992188,323.4708862304688,311.8320922851562,12.68171501159668,1677560.083662625,0.2551116943359375,-0.1341094970703125,-1.033523559570312,1677560.083662625,0.1935236603021622,-0.2214277237653732,-0.5561439394950867,1677560.080002625,-111.5511932373047,102.0386657714844,-320.977294921875,1677560.047562625,0.597238008782903,0.256254606613421,0.09723124199358815,0.08301397413015366,-0.1184606924653053,-0.3808600306510925,-0.05041882395744324,-0.04873482882976532,0.0007714629173278809,2,0.008517393524075781,0.1361577050631333,0.2973789638665255,0.9449626344998192,0.2522620856761932,-0.0970781147480011,-0.9627770781517029,25.38571166992188,13.05373382568359,-30.36135864257812,-1,2,1677557.946271542,4,2,1676669839.500757,0,0,0,0,0,0,0,0,0,1677557.465355,0,0.03962708,98.57798,1676669838.938333,167772201,182416158,0,0,1,1676669838.911374,1,0.4,1
1676669841.70809,47,1676669841.122258,34.21416034233551,-118.3864656794398,246.797,0.3386164,1.613574,-1,-1,10.49032262175941,16.55762180203457,-9999,1676669841.698822,23.34744262695312,13.37471008300781,-31.38385009765625,325.4805908203125,313.841796875,12.6818675994873,1677560.143414875,0.184906005859375,-0.1552734375,-0.9527130126953125,1677560.143414875,0.3889136612415314,-0.5209702253341675,-0.4459961354732513,1677560.140058875,-113.6073455810547,102.0982055664062,-322.2378540039062,1677560.107314625,0.5642420608956251,0.2448553478129336,0.1004643275132934,0.4133998155593872,-0.5720441341400146,-0.5195912718772888,0.02066241204738617,-0.06407221406698227,-0.08765220642089844,2,0.01390998305058602,0.1310200852080972,0.2818506542123935,0.9503685274123105,0.2411936521530151,-0.1002954170107841,-0.9652804732322693,24.52492523193359,13.55007934570312,-30.31851196289062,-1,2,1677557.946271542,4,2,1676669839.500757,0,0,0,0,0,0,0,0,0,1677557.465355,0,0.03962708,98.57798,1676669838.938333,167772201,182416158,0,0,1,1676669838.911374,1,0.4,1
1676669841.76461,48,1676669841.122258,34.21416034233551,-118.3864656794398,246.797,0.3386164,1.613574,-1,-1,10.49032262175941,16.55762180203457,-9999,1676669841.75857,23.01879119873047,13.12526702880859,-31.9097900390625,327.1594543457031,315.5206604003906,12.68201923370361,1677560.203167875,0.2878875732421875,-0.0764617919921875,-1.289947509765625,1677560.203167875,0.5112675428390503,0.1973972320556641,-0.2605583667755127,1677560.200117875,-113.6720733642578,101.7293548583984,-322.8298950195312,1677560.167067875,0.5309979717419635,0.2190793562158153,0.1190431325431194,0.6727598905563354,0.2451441138982773,-0.515460729598999,0.0310484766960144,0.02377625554800034,0.1635257601737976,2,0.02842412075245055,0.12081867441667,0.2666315512752765,0.9557731910704796,0.2157929688692093,-0.1187621653079987,-0.9691898226737976,22.92949676513672,13.58955383300781,-31.27474975585938,-1,2,1677557.946271542,4,2,1676669839.500757,0,0,0,0,0,0,0,0,0,1677557.465355,0,0.03962708,98.57798,1676669838.938333,167772201,182416158,0,0,1,1676669838.911374,1,0.4,1
1676669841.858312,49,1676669841.122258,34.21416034233551,-118.3864656794398,246.797,0.3386164,1.613574,-1,-1,10.49032262175941,16.55762180203457,-9999,1676669841.83814,21.84255981445312,14.23214721679688,-32.48983764648438,328.7730102539062,317.1342163085938,12.68218421936035,1677560.262919875,0.2253875732421875,-0.036163330078125,-0.922607421875,1677560.262919875,-0.2571111619472504,-0.6652472615242004,-0.3976147472858429,1677560.260176875,-114.7614288330078,102.7413482666016,-323.1127319335938,1677560.226819875,0.5034065323225383,0.2303012706335612,0.1459252713469776,-0.2653497755527496,-0.4553578794002533,-0.2645187675952911,0.1064764261245728,0.1055977940559387,-0.4143897294998169,2,0.04159407346259373,0.1290151198212436,0.254858095556825,0.957430074630615,0.2258447408676147,-0.1454079300165176,-0.9632500410079956,22.63328552246094,13.06128692626953,-31.80975341796875,-1,2,1677557.946271542,4,2,1676669839.500757,0,0,0,0,0,0,0,0,0,1677557.465355,0,0.03962708,98.57798,1676669838.938333,167772201,182416158,0,0,1,1676669838.911374,1,0.4,1
1676669841.882921,50,1676669841.122258,34.21416034233551,-118.3864656794398,246.797,0.3386164,1.613574,-1,-1,10.49032262175941,16.55762180203457,-9999,1676669841.878153,20.38142395019531,14.40676116943359,-33.16641235351562,329.7436218261719,318.1048278808594,12.68227958679199,1677560.322672875,0.184722900390625,-0.014801025390625,-0.8828125,1677560.262919875,-0.2571111619472504,-0.6652472615242004,-0.3976147472858429,1677560.320232875,-116.4478607177734,103.1171875,-324.2086181640625,1677560.286572875,0.4848192297893683,0.1935563844550056,0.1250915391538447,0.07124098390340805,-0.6433781385421753,-0.386696457862854,-0.01067133247852325,0.1007940545678139,0.07468700408935547,2,0.03724429054066442,0.1085522837469928,0.2443151839503832,0.9628806779871872,0.1908470988273621,-0.1247655600309372,-0.9736585021018982,21.84255981445312,14.23214721679688,-32.48983764648438,-1,2,1677557.946271542,4,2,1676669839.500757,0,0,0,0,0,0,0,0,0,1677557.465355,0,0.03962708,98.57798,1676669838.938333,167772201,182416158,0,0,1,1676669838.911374,1,0.4,1
1676669841.943305,51,1676669841.122258,34.21416034233551,-118.3864656794398,246.797,0.3386164,1.613574,-1,-1,10.49032262175941,16.55762180203457,-9999,1676669841.937879,19.62738037109375,14.60657501220703,-33.49411010742188,331.7177734375,320.0789794921875,12.68239212036133,1677560.382424875,0.1598358154296875,-0.0257415771484375,-0.8758087158203125,1677560.382424875,0.3371809720993042,-0.1165622994303703,-0.5663145184516907,1677560.380292875,-117.0567321777344,103.4351806640625,-324.3101806640625,1677560.346324875,0.4576737163426122,0.1707954767570806,0.1291831893885371,0.2461299002170563,-0.2695590257644653,-0.5203980803489685,0.03121800720691681,0.1048984676599503,0.1137742400169373,2,0.04332677689078986,0.09748593678328728,0.2309087925528562,0.9671093408659648,0.1685500591993332,-0.1288241744041443,-0.9772385358810425,19.90653991699219,14.56473541259766,-33.47161865234375,-1,2,1677557.946271542,4,2,1676669839.500757,0,0,0,0,0,0,0,0,0,1677557.465355,0,0.03962708,98.57798,1676669838.938333,167772201,182416158,0,0,1,1676669838.911374,1,0.4,1
1676669842.002539,52,1676669841.122258,34.21416034233551,-118.3864656794398,246.797,0.3386164,1.613574,-1,-1,10.49032262175941,16.55762180203457,-9999,1676669841.99744,18.61724853515625,14.58440399169922,-34.08377075195312,333.4624938964844,321.8236999511719,12.68252754211426,1677560.442177875,0.1900482177734375,-0.06353759765625,-0.9334564208984375,1677560.442177875,0.2577311396598816,0.09350065886974335,-0.3922370076179504,1677560.440343875,-118.2342834472656,103.2870635986328,-325.0634765625,1677560.406077875,0.4213534452737759,0.1672077872643672,0.1414676801266502,0.2169625014066696,0.02500217780470848,-0.5265367031097412,0.00582614541053772,0.09210717678070068,0.05481606721878052,2,0.05145146909978733,0.0961840044399821,0.2136415174170894,0.970803094601673,0.1647671163082123,-0.1409962773323059,-0.9762027859687805,19.20653533935547,14.95901489257812,-33.77700805664062,-1,2,1677557.946271542,4,2,1676669839.500757,0,0,0,0,0,0,0,0,0,1677557.465355,0,0.03962708,98.57798,1676669838.938333,167772201,182416158,0,0,1,1676669838.911374,1,0.4,1
1676669842.066262,53,1676669841.122258,34.21416034233551,-118.3864656794398,246.797,0.3386164,1.613574,-1,-1,10.49032262175941,16.55762180203457,-9999,1676669842.057413,19.02813720703125,14.68987274169922,-33.86810302734375,334.8593444824219,323.2205505371094,12.68266201019287,1677560.501929875,0.2218170166015625,-0.1189727783203125,-1.006683349609375,1677560.501929875,0.2110994607210159,0.1981152147054672,-0.3206925392150879,1677560.500399875,-117.7082214355469,103.4786834716797,-324.8910522460938,1677560.465829875,0.3934914820874661,0.1759983233299524,0.1519701748708981,0.3410959839820862,0.1979993134737015,-0.4101432263851166,0.02747312188148499,0.07443585991859436,0.06043952703475952,2,0.05702920426662104,0.1007232016779689,0.2007034934734195,0.9727901488474693,0.1730731576681137,-0.1513858884572983,-0.973205029964447,18.99774169921875,14.96815490722656,-33.54183959960938,-1,2,1677557.946271542,4,2,1676669839.500757,0,0,0,0,0,0,0,0,0,1677557.465355,0,0.03962708,98.57798,1676669838.938333,167772201,182416158,0,0,1,1676669838.911374,1,0.4,1
1676669842.121965,54,1676669841.122258,34.21416034233551,-118.3864656794398,246.797,0.3386164,1.613574,-1,-1,10.49032262175941,16.55762180203457,-9999,1676669842.117317,19.29563903808594,14.82073211669922,-33.86538696289062,335.8603820800781,324.2215881347656,12.68270206451416,1677560.561682875,0.25506591796875,-0.0849609375,-0.9679107666015625,1677560.561682875,0.02537033706903458,0.3123302161693573,-0.2421939969062805,1677560.560459875,-117.7416534423828,103.5045776367188,-324.6854858398438,1677560.525582875,0.3695120343657572,0.1917871980342407,0.1610471833286461,-0.02251267060637474,0.2349438667297363,-0.2680739462375641,0.02121877670288086,0.04388163983821869,-0.07019174098968506,2,0.06117208372646524,0.1085210930759864,0.1898406627580116,0.9738796465694847,0.1881470680236816,-0.1603519320487976,-0.9689623117446899,18.97373199462891,14.77257537841797,-34.34661865234375,-1,2,1677557.946271542,4,2,1676669839.500757,0,0,0,0,0,0,0,0,0,1677557.465355,0,0.03962708,98.57798,1676669838.938333,167772201,182416158,0,0,1,1676669838.911374,1,0.4,1
1676669842.185763,55,1676669841.122258,34.21416034233551,-118.3864656794398,246.797,0.3386164,1.613574,-1,-1,10.49032262175941,16.55762180203457,-9999,1676669842.17688,19.74037933349609,14.98996734619141,-33.06976318359375,336.3051147460938,324.6663208007812,12.68280696868896,1677560.621434875,0.2520751953125,-0.109893798828125,-0.8227081298828125,1677560.561682875,0.02537033706903458,0.3123302161693573,-0.2421939969062805,1677560.620517875,-117.1177673339844,103.7305755615234,-323.5760498046875,1677560.585334875,0.3529046591738693,0.211385792878391,0.1583490872292124,0.07430960983037949,0.4327663481235504,-0.1819498687982559,0.01891469955444336,0.05298240482807159,0.03724008798599243,2,0.05896866692723342,0.1173389614397151,0.1822260591077208,0.9744474231445905,0.2071900367736816,-0.157688170671463,-0.9655085206031799,19.66337585449219,14.98146057128906,-34.09652709960938,-1,2,1677557.946271542,4,2,1676669839.500757,0,0,0,0,0,0,0,0,0,1677557.465355,0,0.03962708,98.57798,1676669838.938333,167772201,182416158,0,0,1,1676669838.911374,1,0.4,1
1676669842.241247,56,1676669842.072507,34.21415760140337,-118.3864624536375,246.8438,0.3386164,1.628629,-1,-1,10.45495126530132,16.04843828996233,-9999,1676669842.236634,20.22151184082031,15.71830749511719,-32.06536865234375,337.1024169921875,325.463623046875,12.68294048309326,1677560.681187875,0.1852874755859375,-0.125885009765625,-0.997100830078125,1677560.681187875,-0.5495331883430481,0.1819668710231781,-0.2124012112617493,1677560.680573875,-115.7880554199219,104.2000579833984,-323.80224609375,1677560.645087875,0.343312803982499,0.2460918273344142,0.1625931330718176,-0.003132627112790942,0.3441936075687408,-0.3397323191165924,0.08341971039772034,0.05990323424339294,0.03035283088684082,2,0.05851280495919509,0.1342988975219615,0.1787837981799891,0.9729216186718141,0.2404023110866547,-0.1618776768445969,-0.9570801258087158,20.07671356201172,15.1500244140625,-32.78619384765625,-1,2,1677557.946271542,4,2,1676669839.500757,0,0,0,0,0,0,0,0,0,1677557.465355,0,0.03962708,98.57798,1676669838.938333,167772201,182416158,0,0,1,1676669838.911374,1,0.4,1
1676669842.301309,57,1676669842.072507,34.21415760140337,-118.3864624536375,246.8438,0.3386164,1.628629,-1,-1,10.45495126530132,16.04843828996233,-9999,1676669842.296405,20.6376953125,17.52110290527344,-31.44699096679688,336.8473510742188,325.2085571289062,12.68309783935547,1677560.740939875,0.2199859619140625,-0.144317626953125,-0.877044677734375,1677560.740939875,-0.9647234678268433,0.6770597100257874,0.04068564251065254,1677560.740629875,-116.0569458007812,106.6798553466797,-321.8521423339844,1677560.704839875,0.335544419219924,0.2594483998926667,0.1328167702726827,-0.8671929836273193,0.1992125660181046,-0.05799289420247078,-0.08963039517402649,-0.0350080132484436,-0.0060921311378479,2,0.04332425622433672,0.1382512277793068,0.1736819696267167,0.9740863778024041,0.254287987947464,-0.1324266195297241,-0.9580191969871521,20.63780212402344,16.54709625244141,-32.26022338867188,-1,2,1677557.946271542,4,2,1676669839.500757,0,0,0,0,0,0,0,0,0,1677557.465355,0,0.03962708,98.57798,1676669838.938333,167772201,182416158,0,0,1,1676669838.911374,1,0.4,1
1676669842.360998,58,1676669842.072507,34.21415760140337,-118.3864624536375,246.8438,0.3386164,1.628629,-1,-1,10.45495126530132,16.04843828996233,-9999,1676669842.35614,22.02036285400391,18.40005493164062,-30.33627319335938,337.4081420898438,325.7693481445312,12.68324184417725,1677560.800692875,0.4300994873046875,0.0271453857421875,-0.52392578125,1677560.800692875,0.7167764902114868,1.555300235748291,-0.6097331047058105,1677560.800685875,-113.8738861083984,107.3435211181641,-320.2437133789062,1677560.764592875,0.3489723334401122,0.2898674110034816,0.08072953048461917,-0.5224713087081909,0.8523349761962891,-0.1288660168647766,0.02246350049972534,0.06834333389997482,0.1389986872673035,2,0.01427201804494538,0.1490500412646086,0.1773817528535729,0.9726849636255497,0.2848942875862122,-0.08064187318086624,-0.9551607966423035,21.37554168701172,18.04378509521484,-30.72482299804688,-1,2,1677557.946271542,4,2,1676669839.500757,0,0,0,0,0,0,0,0,0,1677557.465355,0,0.03962708,98.57798,1676669838.938333,167772201,182416158,0,0,1,1676669838.911374,1,0.4,1
1676669842.423323,59,1676669842.072507,34.21415760140337,-118.3864624536375,246.8438,0.3386164,1.628629,-1,-1,10.45495126530132,16.04843828996233,-9999,1676669842.415877,26.21015167236328,17.50788879394531,-27.85763549804688,340.6523132324219,329.0135192871094,12.68358421325684,1677560.860444875,0.466766357421875,-0.08636474609375,-0.4163970947265625,1677560.860444875,1.920717000961304,3.464207172393799,-0.8601405620574951,1677560.860742875,-109.6135864257812,105.6551818847656,-317.8063659667969,1677560.824344875,0.3096672374036421,0.3794782297917811,0.09732045971553106,1.478003263473511,2.503037929534912,-0.7228317260742188,0.003188937902450562,0.03196614980697632,0.6012358665466309,2,0.01814557670373511,0.193492514060622,0.1603329063181656,0.9677420014743952,0.3686830103397369,-0.09716691076755524,-0.9244627952575684,23.56795501708984,18.36966705322266,-29.26736450195312,-1,2,1677557.946271542,4,2,1676669839.500757,0,0,0,0,0,0,0,0,0,1677557.465355,0,0.03962708,98.57798,1676669838.938333,167772201,182416158,0,0,1,1676669838.911374,1,0.4,1
1676669842.481662,60,1676669842.072507,34.21415760140337,-118.3864624536375,246.8438,0.3386164,1.628629,-1,-1,10.45495126530132,16.04843828996233,-9999,1676669842.47564,31.50379180908203,16.12149810791016,-22.25326538085938,344.8910827636719,333.2522888183594,12.68437767028809,1677560.920197875,0.788818359375,0.1502685546875,-0.35955810546875,1677560.920197875,1.953309059143066,5.042737007141113,-1.334133148193359,1677560.920796875,-103.8507995605469,104.6699676513672,-311.9118041992188,1677560.884097875,0.2118964151427565,0.588816916006457,0.1698615424249983,1.755647897720337,3.895834445953369,-0.9808276295661926,0.1070190072059631,0.1805053055286407,0.2254375815391541,2,0.05014836356376591,0.2960913512383759,0.1253123733467007,0.9455748814831835,0.5473846793174744,-0.1690458804368973,-0.8196300864219666,28.83170318603516,16.50298309326172,-25.69061279296875,-1,2,1677557.946271542,4,2,1676669839.500757,0,0,0,0,0,0,0,0,0,1677557.465355,0,0.03962708,98.57798,1676669838.938333,167772201,182416158,0,0,1,1676669838.911374,1,0.4,1
1676669842.549816,61,1676669842.072507,34.21415760140337,-118.3864624536375,246.8438,0.3386164,1.628629,-1,-1,10.45495126530132,16.04843828996233,-9999,1676669842.535382,36.74718475341797,17.33921051025391,-13.896484375,353.1233825683594,341.4845886230469,12.68576812744141,1677560.979950875,0.8843536376953125,0.2753143310546875,-0.139862060546875,1677560.979950875,2.718563318252563,5.955509185791016,-2.792043685913086,1677560.980849875,-99.35226440429688,106.4856719970703,-302.1238708496094,1677560.943849875,0.07425198554777696,0.9000259841666554,0.202181684133897,2.422317028045654,5.276347160339355,-1.630212426185608,-0.1622997522354126,0.2441115528345108,0.4538074731826782,2,0.07474598278815403,0.4358312680981567,0.07711859612453359,0.8935975949846986,0.7673869132995605,-0.200807049870491,-0.6089282631874084,34.52851104736328,16.20615386962891,-18.59063720703125,-1,2,1677557.946271542,4,2,1676669839.500757,0,0,0,0,0,0,0,0,0,1677557.465355,0,0.03962708,98.57798,1676669838.938333,167772201,182416158,0,0,1,1676669838.911374,1,0.4,1
1676669842.599902,62,1676669842.072507,34.21415760140337,-118.3864624536375,246.8438,0.3386164,1.628629,-1,-1,10.45495126530132,16.04843828996233,-9999,1676669842.595174,36.81805419921875,23.07798004150391,-3.441375732421875,12.39477252960205,0.7559821009635925,12.68781852722168,1677561.039702875,1.34307861328125,0.303680419921875,-0.446685791015625,1677561.039702875,3.345656871795654,4.551242828369141,-4.646708965301514,1677561.040900875,-101.3282012939453,113.2537689208984,-292.980224609375,1677561.003602875,-0.1382407950888692,1.28153989712363,0.1386426918408371,3.102736473083496,6.078880786895752,-3.613310575485229,0.1957906484603882,0.5068666338920593,0.08117809891700745,2,0.09658238883806963,0.5911180511426832,-0.01392315931981331,0.8006605641732287,0.9492592811584473,-0.1381989568471909,-0.2825025916099548,37.66775512695312,19.13082122802734,-8.27801513671875,-1,2,1677557.946271542,4,2,1676669839.500757,0,0,0,0,0,0,0,0,0,1677558.46593,0,0.0369873,98.57801,1676669838.938333,167772201,182416158,0,0,1,1676669838.911374,1,0.4,1
1676669842.66752,63,1676669842.072507,34.21415760140337,-118.3864624536375,246.8438,0.3386164,1.628629,-1,-1,10.45495126530132,16.04843828996233,-9999,1676669842.654993,29.77446746826172,32.09284210205078,1.081939697265625,40.03010559082031,28.39131355285645,12.68940925598145,1677561.099455875,1.621795654296875,0.35260009765625,-0.2081146240234375,1677561.099455875,2.740278005599976,2.929484605789185,-4.929211139678955,1677561.100960875,-109.2455902099609,122.8718109130859,-289.6637878417969,1677561.063355875,-0.3549689211528296,1.582742994171399,-0.09911301190280347,2.642277956008911,3.801151990890503,-4.925409317016602,0.4625134468078613,0.2236047387123108,-0.4602978229522705,2,0.09116134147670246,0.7054314186474506,-0.1586247952254961,0.6847585061571526,0.9950212240219116,0.0989508181810379,0.01188775338232517,33.99186706542969,27.72015380859375,-0.39434814453125,-1,2,1677557.946271542,4,2,1676669839.500757,0,0,0,0,0,0,0,0,0,1677558.46593,0,0.0369873,98.57801,1676669838.938333,167772201,182416158,0,0,1,1676669838.911374,1,0.4,1
1676669842.719633,64,1676669842.072507,34.21415760140337,-118.3864624536375,246.8438,0.3386164,1.628629,-1,-1,10.45495126530132,16.04843828996233,-9999,1676669842.714691,20.49089813232422,38.85398864746094,-1.342376708984375,68.88011169433594,57.2413215637207,12.69046497344971,1677561.159208,1.866806030273438,0.2010040283203125,0.0638427734375,1677561.159208,3.480127096176147,0.7740019559860229,-3.688395738601685,1677561.161016,-118.4470672607422,128.5813751220703,-292.947265625,1677561.123107875,-0.4861212719953911,1.729598896512362,-0.4073511992669132,3.047631025314331,1.974465012550354,-4.625686645507812,0.8834186792373657,-0.08924812078475952,-0.2306760549545288,2,0.05198512741785372,0.7549143385842524,-0.302316509495908,0.5796607264838147,0.9066203236579895,0.396178662776947,0.1451962292194366,25.19495391845703,35.70897674560547,0.707122802734375,-1,2,1677557.946271542,4,2,1676669839.500757,0,0,0,0,0,0,0,0,0,1677558.46593,0,0.0369873,98.57801,1676669838.938333,167772201,182416158,0,0,1,1676669838.911374,1,0.4,1
1676669842.788738,65,1676669842.072507,34.21415760140337,-118.3864624536375,246.8438,0.3386164,1.628629,-1,-1,10.45495126530132,16.04843828996233,-9999,1676669842.774613,14.00412750244141,40.53012084960938,-8.4942626953125,86.70382690429688,75.06504058837891,12.69104099273682,1677561.218961,1.67938232421875,0.02801513671875,0.1790771484375,1677561.218961,2.635712385177612,-0.7229185104370117,-0.8094361424446106,1677561.221071,-123.3410034179688,128.653076171875,-301.0750122070312,1677561.182861,-0.6724952770252004,1.686771441560025,-0.66590382599256,3.476694583892822,0.1275495439767838,-2.849220991134644,1.065069317817688,-0.5093717575073242,0.009592160582542419,2,0.02774910450645984,0.7380561265225103,-0.4377872884352157,0.5126843686531467,0.7810760736465454,0.6177701354026794,0.09099371731281281,16.70584869384766,40.63272094726562,-5.1114501953125,-1,2,1677557.946271542,4,2,1676669839.500757,0,0,0,0,0,0,0,0,0,1677558.46593,0,0.0369873,98.57801,1676669838.938333,167772201,182416158,0,0,1,1676669838.911374,1,0.4,1
1676669842.839116,66,1676669842.072507,34.21415760140337,-118.3864624536375,246.8438,0.3386164,1.628629,-1,-1,10.45495126530132,16.04843828996233,-9999,1676669842.834487,13.12403869628906,38.78392028808594,-13.62503051757812,84.54203796386719,72.90324401855469,12.69118785858154,1677561.278713,1.1910400390625,0.1811676025390625,-0.0356292724609375,1677561.278713,-0.7414019107818604,-2.581179141998291,1.383215546607971,1677561.281127,-123.5682525634766,127.75634765625,-304.3121337890625,1677561.242613,-0.876666243961409,1.509070236139636,-0.7455200612919245,1.544068694114685,-1.471742868423462,0.2985206246376038,0.7465987205505371,-0.5346773266792297,0.1797534227371216,2,0.03049150655278365,0.6902235137966642,-0.5138666609121281,0.5085300567634364,0.7333359718322754,0.678354024887085,-0.04532353952527046,13.12423706054688,39.6412353515625,-11.65518188476562,-1,2,1677557.946271542,4,2,1676669839.500757,0,0,0,0,0,0,0,0,0,1677558.46593,0,0.0369873,98.57801,1676669838.938333,167772201,182416158,0,0,1,1676669838.911374,1,0.4,1
1676669842.907675,67,1676669842.072507,34.21415760140337,-118.3864624536375,246.8438,0.3386164,1.628629,-1,-1,10.45495126530132,16.04843828996233,-9999,1676669842.894036,14.11376953125,39.50743103027344,-11.471435546875,67.14962005615234,55.51082992553711,12.69181346893311,1677561.338466,0.779144287109375,0.3109283447265625,0.560089111328125,1677561.338466,-3.170526266098022,-1.66387403011322,2.178385019302368,1677561.341179,-121.774658203125,128.0160522460938,-300.9942321777344,1677561.302366,-0.8318940296333953,1.389936301209951,-0.684070097900801,-2.370163202285767,-3.472795248031616,1.690598130226135,0.3509150147438049,-0.3691962957382202,0.2689061164855957,2,0.008104063715295484,0.6559206373213464,-0.4888350058538241,0.5751024002228838,0.7623661756515503,0.6319525837898254,-0.1394048780202866,13.46701049804688,38.99855804443359,-13.38632202148438,-1,2,1677557.946271542,4,2,1676669839.500757,0,0,0,0,0,0,0,0,0,1677558.46593,0,0.0369873,98.57801,1676669838.938333,167772201,182416158,0,0,1,1676669838.911374,1,0.4,1
1676669842.958486,68,1676669842.072507,34.21415760140337,-118.3864624536375,246.8438,0.3386164,1.628629,-1,-1,10.45495126530132,16.04843828996233,-9999,1676669842.953834,19.05683135986328,38.17147064208984,-6.743743896484375,53.08996200561523,41.451171875,12.69220066070557,1677561.398219,0.5817413330078125,0.5488128662109375,0.498870849609375,1677561.398219,-0.3079072237014771,1.649929523468018,2.623151779174805,1677561.40123,-116.4885406494141,126.1183776855469,-296.762939453125,1677561.362119,-0.5816511821864513,1.414855953798736,-0.5934166162067487,-2.398628711700439,-0.1329857558012009,2.582625865936279,-0.2179622054100037,-0.1852496862411499,0.720339834690094,2,-0.03467699602437857,0.6591048187248618,-0.3904416606396836,0.641820525053639,0.8189753293991089,0.5591967701911926,-0.1287566870450974,15.98323059082031,39.42477416992188,-8.675048828125,-1,2,1677557.946271542,4,2,1676669839.500757,0,0,0,0,0,0,0,0,0,1677558.46593,0,0.0369873,98.57801,1676669838.938333,167772201,182416158,0,0,1,1676669838.911374,1,0.4,1
1676669843.025112,69,1676669842.072507,34.21415760140337,-118.3864624536375,246.8438,0.3386164,1.628629,-1,-1,10.45495126530132,16.04843828996233,-9999,1676669843.013582,24.68773651123047,35.46837615966797,-5.1058349609375,51.33402252197266,39.69523239135742,12.69247150421143,1677561.457971,0.8032073974609375,0.464599609375,0.183197021484375,1677561.457971,1.283905148506165,2.636608362197876,1.772594094276428,1677561.431255,-113.5518035888672,125.0880737304688,-296.4100952148438,1677561.421871,-0.5082743632476313,1.522174656519616,-0.4497993887154238,0.6212739944458008,1.802401423454285,1.889021039009094,-0.1549479961395264,0.1742391586303711,0.50765061378479,2,0.0127423163052604,0.6913418254353595,-0.3263291559026477,0.6445101018358659,0.8994699716567993,0.4347848892211914,-0.04376822710037231,22.40021514892578,36.77230072021484,-5.9410400390625,-1,2,1677557.946271542,4,2,1676669839.500757,0,0,0,0,0,0,0,0,0,1677558.46593,0,0.0369873,98.57801,1676669838.938333,167772201,182416158,0,0,1,1676669838.911374,1,0.4,1
1676669843.078123,70,1676669842.072507,34.21415760140337,-118.3864624536375,246.8438,0.3386164,1.628629,-1,-1,10.45495126530132,16.04843828996233,-9999,1676669843.073114,28.68313598632812,31.60434722900391,-5.546722412109375,52.66637420654297,41.02758407592773,12.69268703460693,1677561.517724,1.034912109375,0.3156585693359375,-0.2144927978515625,1677561.517724,1.516631841659546,0.3412108421325684,1.151441931724548,1677561.49131,-108.9210357666016,121.127197265625,-295.4533081054688,1677561.481624,-0.5812657951728095,1.634137704516545,-0.3479565258346266,1.62200665473938,1.738932013511658,1.83472466468811,-0.03150898218154907,0.02129665017127991,-0.109508752822876,2,0.09229184130796891,0.7219660786615267,-0.3140720726657871,0.609594818227237,0.9381861686706543,0.3409775197505951,0.05950560420751572,26.26090240478516,34.53410339355469,-4.773529052734375,-1,2,1677557.946271542,4,2,1676669839.500757,0,0,0,0,0,0,0,0,0,1677558.46593,0,0.0369873,98.57801,1676669838.938333,167772201,182416158,0,0,1,1676669838.911374,1,0.4,1
1676669843.143682,71,1676669842.072507,34.21415760140337,-118.3864624536375,246.8438,0.3386164,1.628629,-1,-1,10.45495126530132,16.04843828996233,-9999,1676669843.132978,31.59132385253906,28.94648742675781,-6.1556396484375,51.64851379394531,40.00972366333008,12.69274806976318,1677561.577476,1.033843994140625,0.1052703857421875,-0.012298583984375,1677561.577476,0.3841149210929871,1.395192503929138,1.170127987861633,1677561.551357,-106.0752258300781,118.76904296875,-296.8320922851562,1677561.541376,-0.6746945802370899,1.64437924582976,-0.2718329069237078,0.7701871991157532,0.4365852475166321,1.353924512863159,-0.1187396049499512,-0.291629821062088,-0.152588963508606,2,0.1532311652562987,0.7154919473509651,-0.3168729418739132,0.6034757556626599,0.9606736898422241,0.268497496843338,0.07081703096628189,29.74416351318359,30.88399505615234,-6.341217041015625,-1,2,1677557.946271542,4,2,1676669839.500757,0,0,0,0,0,0,0,0,0,1677558.46593,0,0.0369873,98.57801,1676669838.938333,167772201,182416158,0,0,1,1676669838.911374,1,0.4,1
1676669843.198121,72,1676669842.072507,34.21415760140337,-118.3864624536375,246.8438,0.3386164,1.628629,-1,-1,10.45495126530132,16.04843828996233,-9999,1676669843.192727,33.63283538818359,26.77165222167969,-4.235595703125,51.13699722290039,39.49820709228516,12.69278049468994,1677561.637229,0.9311981201171875,0.2519378662109375,-0.028167724609375,1677561.577476,0.3841149210929871,1.395192503929138,1.170127987861633,1677561.611408,-104.0911865234375,115.6591796875,-295.600341796875,1677561.601129,-0.7076204358873374,1.710166635637862,-0.2007121507012111,0.2750734090805054,1.405714511871338,0.9951516389846802,-0.1094765067100525,0.1521189957857132,-0.1699290424585342,2,0.1984762135166789,0.727098720390844,-0.2971185946970785,0.5862210398812077,0.9704231023788452,0.1993672400712967,0.1361307203769684,32.17414855957031,27.82930755615234,-5.47247314453125,-1,2,1677557.946271542,4,2,1676669839.500757,0,0,0,0,0,0,0,0,0,1677558.46593,0,0.0369873,98.57801,1676669838.938333,167772201,182416158,0,0,1,1676669838.911374,1,0.4,1
1676669843.267328,73,1676669843.022407,34.21415599835513,-118.3864568578861,246.8664,0.02989119,1.56105,-1,-1,10.25886845782479,15.44377623331215,-9999,1676669843.252635,32.32292938232422,28.32029724121094,-4.505706787109375,52.27218246459961,40.63339233398438,12.69281196594238,1677561.696982,1.015213012695312,0.476715087890625,0.2104034423828125,1677561.696982,-1.238344073295593,-0.7269819974899292,-1.959716320037842,1677561.671463,-103.4230194091797,116.3501586914062,-295.345947265625,1677561.660882,-0.7246643353305019,1.746972296420856,-0.1883722658889323,-0.3244371116161346,-0.7487819194793701,-0.9125089049339294,-0.02537858486175537,0.2588610053062439,-0.06501854956150055,2,0.2140399517528255,0.7350304105160406,-0.2940208142628331,0.5722489514469062,0.9671051502227783,0.1872602105140686,0.1721656173467636,33.77462768554688,26.64946746826172,-3.9149169921875,-1,2,1677557.946271542,4,2,1676669839.500757,0,0,0,0,0,0,0,0,0,1677558.46593,0,0.0369873,98.57801,1676669838.938333,167772201,182416158,0,0,1,1676669838.911374,1,0.4,1
1676669843.317016,74,1676669843.022407,34.21415599835513,-118.3864568578861,246.8664,0.02989119,1.56105,-1,-1,10.25886845782479,15.44377623331215,-9999,1676669843.312275,30.31513977050781,30.58065795898438,-3.720855712890625,52.36249160766602,40.72370147705078,12.69282817840576,1677561.756734,1.056167602539062,-0.0137176513671875,0.32305908203125,1677561.696982,-1.238344073295593,-0.7269819974899292,-1.959716320037842,1677561.731524,-106.5697784423828,119.1803283691406,-294.6340026855469,1677561.720634,-0.6471464861541651,1.724208770896053,-0.2738953297634083,-0.9660534262657166,0.1009106561541557,-1.25266706943512,-0.1329668164253235,0.1312497854232788,0.07457958161830902,2,0.154894939958196,0.7413266403036698,-0.3032707325625508,0.5783330868544933,0.9514176249504089,0.2704836130142212,0.1471152603626251,30.86410522460938,29.47614288330078,-4.517608642578125,-1,2,1677557.946271542,4,2,1676669839.500757,0,0,0,0,0,0,0,0,0,1677558.46593,0,0.0369873,98.57801,1676669838.938333,167772201,182416158,0,0,1,1676669838.911374,1,0.4,1
1676669843.385499,75,1676669843.022407,34.21415599835513,-118.3864568578861,246.8664,0.02989119,1.56105,-1,-1,10.25886845782479,15.44377623331215,-9999,1676669843.372016,30.74777984619141,29.69855499267578,-5.6297607421875,49.15590286254883,37.51711273193359,12.69280242919922,1677561.816487,0.94268798828125,-0.25946044921875,0.324249267578125,1677561.816487,-0.7309402227401733,-0.6488014459609985,1.270667433738708,1677561.79158,-106.0740203857422,119.2662200927734,-295.6551818847656,1677561.780387,-0.6343169280285411,1.706893902890865,-0.2730219346761132,0.04287853837013245,-0.7569630146026611,0.3384632170200348,0.1370999813079834,-0.1658371388912201,0.2752007246017456,2,0.1478215531734425,0.7372075541622618,-0.3005456473241482,0.5868101518032904,0.9540560245513916,0.2696426808834076,0.1306523829698563,30.48783874511719,30.62926483154297,-4.456939697265625,-1,2,1677557.946271542,4,2,1676669839.500757,0,0,0,0,0,0,0,0,0,1677558.46593,0,0.0369873,98.57801,1676669838.938333,167772201,182416158,0,0,1,1676669838.911374,1,0.4,1
1676669843.436565,76,1676669843.022407,34.21415599835513,-118.3864568578861,246.8664,0.02989119,1.56105,-1,-1,10.25886845782479,15.44377623331215,-9999,1676669843.431856,32.45478057861328,27.46593475341797,-5.648284912109375,40.4635009765625,28.8247127532959,12.69286727905273,1677561.87624,1.25909423828125,-0.1270599365234375,0.204803466796875,1677561.87624,-0.4779543280601501,0.0345047153532505,0.6430617570877075,1677561.851639,-104.1299133300781,116.9272308349609,-296.36474609375,1677561.84014,-0.6076498622656076,1.668177360787018,-0.2069465300247061,-0.9902941584587097,-1.005828738212585,1.796974062919617,0.04266691207885742,-0.5022712349891663,0.1702281087636948,2,0.1541905150314369,0.7237413896225675,-0.2729250211228247,0.6147645444138197,0.9740259647369385,0.20547254383564,0.09515263140201569,31.47518157958984,29.23740386962891,-5.36248779296875,-1,2,1677557.946271542,4,2,1676669839.500757,0,0,0,0,0,0,0,0,0,1677558.46593,0,0.0369873,98.57801,1676669838.938333,167772201,182416158,0,0,1,1676669838.911374,1,0.4,1
1676669843.508026,77,1676669843.022407,34.21415599835513,-118.3864568578861,246.8664,0.02989119,1.56105,-1,-1,10.25886845782479,15.44377623331215,-9999,1676669843.491538,31.51641845703125,29.04189300537109,-3.939697265625,46.93876266479492,35.29997253417969,12.69306373596191,1677561.935992,1.112960815429688,0.19671630859375,0.2767486572265625,1677561.935992,1.198061585426331,3.005655288696289,-3.479704618453979,1677561.911696,-104.1103057861328,116.0907897949219,-295.574462890625,1677561.899892,-0.5787938209789794,1.66333286593529,-0.1567264435960045,0.1634180843830109,1.292361855506897,-0.8037604689598083,0.2677947282791138,-0.1951175481081009,0.1044066026806831,2,0.1597179658038241,0.7211977265105111,-0.2471006454452104,0.6271405720384221,0.9835175275802612,0.1560856103897095,0.09127198159694672,32.83116912841797,27.18510437011719,-5.3974609375,-1,2,1677557.946271542,4,2,1676669839.500757,0,0,0,0,0,0,0,0,0,1677558.46593,0,0.0369873,98.57801,1676669838.938333,167772201,182416158,0,0,1,1676669838.911374,1,0.4,1
1676669843.556125,78,1676669843.022407,34.21415599835513,-118.3864568578861,246.8664,0.02989119,1.56105,-1,-1,10.25886845782479,15.44377623331215,-9999,1676669843.551101,22.57102203369141,36.52634429931641,-1.894256591796875,75.7491455078125,64.11035919189453,12.69442939758301,1677561.995745,0.9118499755859375,0.5761871337890625,0.057037353515625,1677561.995745,1.623686194419861,4.25856351852417,-5.830442428588867,1677561.971753,-111.2835388183594,123.0193328857422,-292.8689270019531,1677561.959645,-0.6090120137172795,1.797783068621228,-0.3437125042240551,1.733532905578613,2.321359872817993,-5.168463230133057,0.2459859848022461,-0.044809490442276,-0.2678644955158234,2,0.1296415914270318,0.76754998011677,-0.3115660048847302,0.5449647506864532,0.9173591732978821,0.3369847536087036,0.2118798345327377,29.53915405273438,31.29390716552734,-2.187347412109375,-1,2,1677557.946271542,4,2,1676669839.500757,0,0,0,0,0,0,0,0,0,1677558.46593,0,0.0369873,98.57801,1676669838.938333,167772201,182416158,0,0,1,1676669838.911374,1,0.4,1
1676669843.62955,79,1676669843.022407,34.21415599835513,-118.3864568578861,246.8664,0.02989119,1.56105,-1,-1,10.25886845782479,15.44377623331215,-9999,1676669843.611113,17.55091857910156,39.09346771240234,-3.68194580078125,100.8246765136719,89.18588256835938,12.69530391693115,1677562.055498,0.3501129150390625,0.505950927734375,-0.54180908203125,1677562.055498,1.958913445472717,1.483094930648804,0.7208995819091797,1677562.031811,-120.5738525390625,128.2285003662109,-292.7491455078125,1677562.019398,-0.6103800313198021,1.99928402237224,-0.6904214393645242,2.617630958557129,2.751759052276611,-3.478013277053833,-0.970106840133667,-0.4097352027893066,-0.2618816196918488,2,0.06338534333910045,0.8100316161745653,-0.4243831964798633,0.3996622188982995,0.7012774348258972,0.6368621587753296,0.3203378319740295,18.88454437255859,38.57508850097656,-1.18304443359375,-1,2,1677557.946271542,4,2,1676669839.500757,0,0,0,0,0,0,0,0,0,1677559.466508,0,0.01057434,98.57834,1676669838.938333,167772201,182416158,0,0,1,1676669838.911374,1,0.4,1
1676669843.675616,80,1676669843.022407,34.21415599835513,-118.3864568578861,246.8664,0.02989119,1.56105,-1,-1,10.25886845782479,15.44377623331215,-9999,1676669843.670581,15.87438201904297,38.93487548828125,-7.92266845703125,108.7472991943359,97.10851287841797,12.69537734985352,1677562.11525,0.345489501953125,0.33135986328125,-0.069061279296875,1677562.11525,1.857999086380005,-1.758594989776611,-1.827059030532837,1677562.091865,-119.6741943359375,127.5846099853516,-297.3839111328125,1677562.07915,-0.780577544951181,1.98475524649411,-0.7570886940935262,1.657824158668518,0.1737798899412155,-0.901303768157959,-0.1983751654624939,-0.2781779170036316,-0.4110290706157684,2,0.1091633737879467,0.7964069728790389,-0.4794489553528625,0.3520625577526922,0.6654466986656189,0.6868082880973816,0.2923614084720612,17.64133453369141,38.58989715576172,-4.56268310546875,-1,2,1677557.946271542,4,2,1676669839.500757,0,0,0,0,0,0,0,0,0,1677559.466508,0,0.01057434,98.57834,1676669838.938333,167772201,182416158,0,0,1,1676669838.911374,1,0.4,1
1676669843.735379,81,1676669843.022407,34.21415599835513,-118.3864568578861,246.8664,0.02989119,1.56105,-1,-1,10.25886845782479,15.44377623331215,-9999,1676669843.730659,7.763595581054688,38.87368774414062,-14.04696655273438,115.6854095458984,104.0466156005859,12.69596481323242,1677562.175002417,-0.0180816650390625,1.03277587890625,0.15716552734375,1677562.175002417,2.896304607391357,-1.697648525238037,-2.220089435577393,1677562.151919417,-126.3894500732422,127.9950256347656,-303.0614929199219,1677562.138902417,-0.883439347539123,1.826779075135043,-0.8912491516145562,1.917541027069092,-2.592213869094849,-3.001793146133423,-0.1648172736167908,-0.1860147714614868,-0.2711794376373291,2,0.06724622609068981,0.7583121837137561,-0.5441563995496639,0.352610740389718,0.607962965965271,0.7778573632240295,0.1591188460588455,13.93431091308594,38.89548492431641,-10.0706787109375,-1,2,1677557.946271542,4,2,1676669839.500757,0,0,0,0,0,0,0,0,0,1677559.466508,0,0.01057434,98.57834,1676669838.938333,167772201,182416158,0,0,1,1676669838.911374,1,0.4,1
1676669843.795234,82,1676669843.022407,34.21415599835513,-118.3864568578861,246.8664,0.02989119,1.56105,-1,-1,10.25886845782479,15.44377623331215,-9999,1676669843.79028,8.997947692871094,34.92364501953125,-21.64187622070312,122.2313079833984,110.5925216674805,12.69658470153809,1677562.234755417,1.178375244140625,2.110916137695312,-1.268844604492188,1677562.234755417,1.243569731712341,2.430049180984497,1.917608380317688,1677562.211976417,-130.05078125,124.5328521728516,-310.8982543945312,1677562.198655417,-1.149043941777718,1.498128617717953,-1.040527643504243,4.073816776275635,0.4352988004684448,0.1609668582677841,-0.6044214367866516,0.3291165828704834,0.05136876925826073,2,0.01549137345865664,0.6938297921366123,-0.6294759654277374,0.3494572483491685,0.5044305920600891,0.8626711964607239,-0.03672047331929207,5.779220581054688,38.18455505371094,-16.54904174804688,-1,2,1677557.946271542,4,2,1676669839.500757,0,0,0,0,0,0,0,0,0,1677559.466508,0,0.01057434,98.57834,1676669838.938333,167772201,182416158,0,0,1,1676669838.911374,1,0.4,1
1676669843.85502,83,1676669843.022407,34.21415599835513,-118.3864568578861,246.8664,0.02989119,1.56105,-1,-1,10.25886845782479,15.44377623331215,-9999,1676669843.850117,10.82614135742188,35.87551879882812,-19.32687377929688,117.1718902587891,105.5331039428711,12.69694900512695,1677562.294507417,0.8497314453125,0.79522705078125,0.2626800537109375,1677562.294507417,-0.2086275070905685,-7.872629165649414,0.2190394103527069,1677562.272030417,-125.4090728759766,123.8448638916016,-310.6514892578125,1677562.258407417,-1.331956626587384,1.450985559864013,-0.9401464589017764,-1.746608734130859,0.6438536047935486,0.2219272702932358,0.9110633134841919,1.059161424636841,-1.081146836280823,2,0.09899849689663071,0.674506763197135,-0.6484201144149496,0.3388083444935784,0.5854422450065613,0.8076444864273071,-0.07047984749078751,10.85353088378906,34.40479278564453,-21.12359619140625,-1,2,1677557.946271542,4,2,1676669839.500757,0,0,0,0,0,0,0,0,0,1677559.466508,0,0.01057434,98.57834,1676669838.938333,167772201,182416158,0,0,1,1676669838.911374,1,0.4,1
1676669843.914762,84,1676669843.022407,34.21415599835513,-118.3864568578861,246.8664,0.02989119,1.56105,-1,-1,10.25886845782479,15.44377623331215,-9999,1676669843.909609,5.29022216796875,36.22293090820312,-20.76116943359375,105.1760864257812,93.53729248046875,12.69793605804443,1677562.354260417,0.76953125,0.5833892822265625,0.03228759765625,1677562.354260417,-1.03419816493988,2.247972726821899,0.153376504778862,1677562.332084417,-131.6670532226562,125.1291961669922,-312.1119995117188,1677562.318160417,-1.237230155749398,1.261899067537676,-0.927602240947944,-0.1513526737689972,-6.1159987449646,0.7406944036483765,0.147244930267334,-0.2686289548873901,0.9205352067947388,2,0.01167411459114992,0.6392953567666945,-0.6337818996427498,0.4352996173605183,0.5713677406311035,0.8001841902732849,-0.1823303252458572,7.06378173828125,36.02882385253906,-21.31503295898438,-1,2,1677557.946271542,4,2,1676669839.500757,0,0,0,0,0,0,0,0,0,1677559.466508,0,0.01057434,98.57834,1676669838.938333,167772201,182416158,0,0,1,1676669838.911374,1,0.4,1
1676669843.97429,85,1676669843.022407,34.21415599835513,-118.3864568578861,246.8664,0.02989119,1.56105,-1,-1,10.25886845782479,15.44377623331215,-9999,1676669843.969642,7.814910888671875,36.96420288085938,-18.55599975585938,107.6844787597656,96.04569244384766,12.69803333282471,1677562.414013417,0.6552276611328125,0.77044677734375,-0.225555419921875,1677562.414013417,0.1711211502552032,-1.551170945167542,0.284339040517807,1677562.392138417,-128.9950103759766,126.0404968261719,-309.0377502441406,1677562.377913417,-1.143018668411921,1.370220907168261,-0.9239685746740024,-0.9168954491615295,2.840358257293701,-0.120899997651577,0.1059876680374146,-0.1549789905548096,-0.09311115741729736,2,0.01608309524266033,0.6631037473338438,-0.612156089538009,0.4304644900818885,0.5905759334564209,0.7979996204376221,-0.1200695112347603,6.507614135742188,36.71454620361328,-19.79443359375,-1,2,1677557.946271542,4,2,1676669839.500757,0,0,0,0,0,0,0,0,0,1677559.466508,0,0.01057434,98.57834,1676669838.938333,167772201,182416158,0,0,1,1676669838.911374,1,0.4,1
1676669844.033957,86,1676669843.022407,34.21415599835513,-118.3864568578861,246.8664,0.02989119,1.56105,-1,-1,10.25886845782479,15.44377623331215,-9999,1676669844.02916,5.709625244140625,36.60399627685547,-19.58282470703125,101.0911407470703,89.45235443115234,12.69821929931641,1677562.473766417,0.5908660888671875,0.9393310546875,0.025604248046875,1677562.473766417,-0.03062688559293747,-2.799556732177734,0.143700435757637,1677562.452192417,-130.6773834228516,125.6065368652344,-310.49462890625,1677562.437666417,-1.125679802259603,1.359515137027822,-0.9148887566718651,0.1016296893358231,-2.402204513549805,0.2816983163356781,0.0664486289024353,0.05381870269775391,-0.1361998319625854,2,0.01042877246235113,0.6602587106412996,-0.6071207644452921,0.4419887128514937,0.5963168144226074,0.7924947738647461,-0.1278993487358093,7.211944580078125,36.8441162109375,-18.8177490234375,-1,2,1677557.946271542,4,2,1676669839.500757,0,0,0,0,0,0,0,0,0,1677559.466508,0,0.01057434,98.57834,1676669838.938333,167772201,182416158,0,0,1,1676669838.911374,1,0.4,1
1676669844.093874,87,1676669843.022407,34.21415599835513,-118.3864568578861,246.8664,0.02989119,1.56105,-1,-1,10.25886845782479,15.44377623331215,-9999,1676669844.089181,3.331512451171875,37.55194091796875,-19.8216552734375,98.5654296875,86.9266357421875,12.69822216033936,1677562.533518417,0.71331787109375,0.797149658203125,0.0519561767578125,1677562.533518417,-0.7576227188110352,-0.187428742647171,-0.07827989012002945,1677562.512246417,-133.3487548828125,125.7447814941406,-310.8153076171875,1677562.497418417,-1.114128114730749,1.223719702391674,-0.9093385789234975,-0.6475523710250854,-0.8894623517990112,-0.1757588386535645,0.1346557140350342,0.07958519458770752,0.388996958732605,2,-0.03231448871178572,0.6280796992288592,-0.6029278095999143,0.4908663156103945,0.5776396989822388,0.7890976071357727,-0.2089433372020721,4.069549560546875,36.83934783935547,-19.65234375,-1,2,1677557.946271542,4,2,1676669839.500757,0,0,0,0,0,0,0,0,0,1677559.466508,0,0.01057434,98.57834,1676669838.938333,167772201,182416158,0,0,1,1676669838.911374,1,0.4,1
1676669844.153473,88,1676669843.982359,34.21415755560826,-118.3864558381416,246.8846,0.1216224,1.490531,-1,-1,10.15099423928351,14.91998103442783,-9999,1676669844.148728,2.239044189453125,38.35385131835938,-17.56820678710938,96.55415344238281,84.91535949707031,12.69818687438965,1677562.593271417,0.9203643798828125,0.7464752197265625,-0.1047515869140625,1677562.593271417,-0.6884226202964783,-0.3787457048892975,-0.06081434711813927,1677562.572304417,-134.2690582275391,127.0614776611328,-308.6123046875,1677562.557171417,-1.0459477000606,1.262341104157332,-0.9318044066730069,-0.7042994499206543,-0.8558038473129272,-0.1400935351848602,0.2024974226951599,0.006979703903198242,0.07761585712432861,2,-0.05088994630501487,0.6378734878359215,-0.5899075740520779,0.4924800579658926,0.5682392120361328,0.8026973605155945,-0.1810552477836609,2.830047607421875,37.79518890380859,-18.81243896484375,-1,2,1677557.946271542,4,2,1676669839.500757,0,0,0,0,0,0,0,0,0,1677559.466508,0,0.01057434,98.57834,1676669838.938333,167772201,182416158,0,0,1,1676669838.911374,1,0.4,1
1676669844.213405,89,1676669843.982359,34.21415755560826,-118.3864558381416,246.8846,0.1216224,1.490531,-1,-1,10.15099423928351,14.91998103442783,-9999,1676669844.208657,1.467193603515625,38.40798950195312,-16.15673828125,93.62422180175781,81.98543548583984,12.69821166992188,1677562.653024417,1.101272583007812,0.7235260009765625,0.0540313720703125,1677562.653024417,-0.4289873242378235,-0.0206602718681097,0.4469106495380402,1677562.632359417,-135.0172576904297,127.1569061279297,-307.6749877929688,1677562.616924417,-0.9819375735141299,1.28081668055591,-0.9478800989745838,-0.5158726572990417,-0.8775146007537842,0.1315478384494781,0.4651059508323669,-0.08139151334762573,0.09284014999866486,2,-0.07206461164737316,0.6414041327388583,-0.5768806102843146,0.5006157022374198,0.559048593044281,0.8121805787086487,-0.1668148636817932,2.023773193359375,38.50594329833984,-16.59381103515625,-1,2,1677557.946271542,4,2,1676669839.500757,0,0,0,0,0,0,0,0,0,1677559.466508,0,0.01057434,98.57834,1676669838.938333,167772201,182416158,0,0,1,1676669838.911374,1,0.4,1
1676669844.273147,90,1676669843.982359,34.21415755560826,-118.3864558381416,246.8846,0.1216224,1.490531,-1,-1,10.15099423928351,14.91998103442783,-9999,1676669844.268117,3.725509643554688,39.52236938476562,-14.84613037109375,92.54766845703125,80.90887451171875,12.69824123382568,1677562.712777417,0.5380706787109375,0.893310546875,0.306182861328125,1677562.712777417,-1.325308561325073,2.233545064926147,0.5090784430503845,1677562.692415417,-133.4512023925781,128.0261077880859,-306.1494140625,1677562.676676417,-0.9267498791195131,1.31247580140085,-0.9321034485829218,-0.4576716125011444,0.6355224847793579,0.6862701773643494,0.3479499220848083,-0.024158775806427,0.4245675802230835,2,-0.07485434533478047,0.6467239834225043,-0.5616252464528937,0.5106092780765915,0.5763663649559021,0.8028756976127625,-0.1522898375988007,2.2060546875,38.91287994384766,-15.7568359375,-1,2,1677557.946271542,4,2,1676669839.500757,0,0,0,0,0,0,0,0,0,1677559.466508,0,0.01057434,98.57834,1676669838.938333,167772201,182416158,0,0,1,1676669838.911374,1,0.4,1
1676669844.332939,91,1676669843.982359,34.21415755560826,-118.3864558381416,246.8846,0.1216224,1.490531,-1,-1,10.15099423928351,14.91998103442783,-9999,1676669844.328266,6.1851806640625,40.52691650390625,-9.587738037109375,91.78553771972656,80.14675140380859,12.69852352142334,1677562.772529417,0.3234405517578125,0.9275054931640625,-0.2941436767578125,1677562.772529417,-2.68768835067749,0.5716323256492615,0.5468481779098511,1677562.752470417,-130.7255554199219,129.4055786132812,-300.8301086425781,1677562.736429417,-0.800701032743391,1.519482893913608,-0.9104637813976141,-2.181391716003418,2.413355112075806,0.2964056134223938,-0.215538501739502,0.1417301893234253,0.0006836652755737305,2,-0.05246962931382221,0.6939139276351964,-0.5326616260047855,0.4816658445156158,0.6125721335411072,0.7897883057594299,-0.03146079927682877,5.071212768554688,40.0311279296875,-12.9346923828125,-1,2,1677557.946271542,4,2,1676669839.500757,0,0,0,0,0,0,0,0,0,1677559.466508,0,0.01057434,98.57834,1676669838.938333,167772201,182416158,0,0,1,1676669838.911374,1,0.4,1
1676669844.392691,92,1676669843.982359,34.21415755560826,-118.3864558381416,246.8846,0.1216224,1.490531,-1,-1,10.15099423928351,14.91998103442783,-9999,1676669844.387642,7.298171997070312,41.36300659179688,-3.77313232421875,84.63397216796875,72.99518585205078,12.6986255645752,1677562.832282417,0.9698028564453125,0.890045166015625,0.2416534423828125,1677562.832282417,-0.6589227914810181,0.03608822822570801,0.1656656563282013,1677562.812526417,-129.5160217285156,129.9898223876953,-295.0534057617188,1677562.796182417,-0.5627584894455838,1.763736370923784,-0.869676066611065,-2.332473039627075,-0.3771809637546539,0.516950786113739,-0.02319562435150146,0.2380620241165161,-0.406664252281189,2,-0.06286788946228566,0.7469220663342629,-0.4724934796936993,0.4635784993961957,0.633104681968689,0.7641200423240662,0.1236898899078369,6.84381103515625,41.08409118652344,-6.348480224609375,-1,2,1677557.946271542,4,2,1676669839.500757,0,0,0,0,0,0,0,0,0,1677559.466508,0,0.01057434,98.57834,1676669838.938333,167772201,182416158,0,0,1,1676669838.911374,1,0.4,1
1676669844.45237,93,1676669843.982359,34.21415755560826,-118.3864558381416,246.8846,0.1216224,1.490531,-1,-1,10.15099423928351,14.91998103442783,-9999,1676669844.447692,8.050552368164062,41.13465881347656,-2.734649658203125,89.47282409667969,77.83403015136719,12.69870662689209,1677562.892035417,0.706207275390625,0.4772796630859375,-0.0543975830078125,1677562.892035417,0.1146770492196083,2.358122825622559,0.3344496190547943,1677562.872580417,-128.6307983398438,130.1972961425781,-293.4859008789062,1677562.855935417,-0.4737565905903298,1.834968304090236,-0.8430688629756139,0.1025451123714447,1.668715715408325,0.03116276115179062,0.2700563073158264,-0.1143790483474731,0.1393043994903564,2,-0.07171866787980075,0.7626914730886706,-0.4459822298357659,0.4628800038452751,0.6420987844467163,0.7466879487037659,0.1736837029457092,7.726104736328125,41.48171997070312,-2.8018798828125,-1,2,1677557.946271542,4,2,1676669839.500757,0,0,0,0,0,0,0,0,0,1677559.466508,0,0.01057434,98.57834,1676669838.938333,167772201,182416158,0,0,1,1676669838.911374,1,0.4,1
1676669844.512047,94,1676669843.982359,34.21415755560826,-118.3864558381416,246.8846,0.1216224,1.490531,-1,-1,10.15099423928351,14.91998103442783,-9999,1676669844.507201,10.34978485107422,40.81385803222656,-1.617523193359375,91.21376037597656,79.57497406005859,12.69875240325928,1677562.951788417,0.435791015625,0.658966064453125,-0.0144500732421875,1677562.951788417,0.2172343134880066,0.5496130585670471,1.065911531448364,1677562.932633417,-126.8291473388672,129.9828491210938,-292.9772338867188,1677562.915687417,-0.4920211235124833,1.949837197019234,-0.8278887278908194,-0.03149595856666565,1.492219090461731,0.8330970406532288,-0.04629629850387573,-0.2107327580451965,-0.3786722123622894,2,-0.03440476518988966,0.7899153711534952,-0.4480172209513739,0.4172896144743514,0.6284191012382507,0.736504852771759,0.2502999603748322,8.936126708984375,41.15240478515625,-1.84381103515625,-1,2,1677557.946271542,4,2,1676669839.500757,0,0,0,0,0,0,0,0,0,1677559.466508,0,0.01057434,98.57834,1676669838.938333,167772201,182416158,0,0,1,1676669838.911374,1,0.4,1
1676669844.571824,95,1676669843.982359,34.21415755560826,-118.3864558381416,246.8846,0.1216224,1.490531,-1,-1,10.15099423928351,14.91998103442783,-9999,1676669844.567334,12.20577239990234,39.70072937011719,-2.1944580078125,93.99290466308594,82.35411834716797,12.69879913330078,1677563.011540417,0.3179473876953125,0.5937042236328125,0.07733154296875,1677563.011540417,0.8794495463371277,1.633615493774414,0.2075425386428833,1677562.992686417,-124.586181640625,128.7741546630859,-292.5764465332031,1677562.975440417,-0.5372375117315854,1.964811620617122,-0.7766306810432609,0.5279127955436707,0.8574958443641663,0.8024020791053772,-0.2393583059310913,-0.05171018838882446,-0.2072837054729462,2,0.001720450076576729,0.7980668120738064,-0.4399986982215568,0.4116886270014203,0.6586240530014038,0.7008801102638245,0.2738271951675415,11.46267700195312,40.21711730957031,-1.859710693359375,-1,2,1677557.946271542,4,2,1676669839.500757,0,0,0,0,0,0,0,0,0,1677559.466508,0,0.01057434,98.57834,1676669838.938333,167772201,182416158,0,0,1,1676669838.911374,1,0.4,1
1676669844.631447,96,1676669843.982359,34.21415755560826,-118.3864558381416,246.8846,0.1216224,1.490531,-1,-1,10.15099423928351,14.91998103442783,-9999,1676669844.626844,13.07489776611328,39.31898498535156,-3.304534912109375,100.2894744873047,88.65068054199219,12.69888973236084,1677563.071293417,0.4379119873046875,0.6305389404296875,0.2527313232421875,1677563.011540417,0.8794495463371277,1.633615493774414,0.2075425386428833,1677563.052742417,-123.6291809082031,128.3975372314453,-293.9219360351562,1677563.035193417,-0.6095825220030942,1.994854029617895,-0.7781507253722822,1.076231002807617,1.009811520576477,-0.0224638395011425,-0.4101772904396057,-0.1272107362747192,-0.2650183141231537,2,0.03696946030708892,0.803217016630052,-0.4546055204602961,0.3831572939071721,0.6491299867630005,0.7019635438919067,0.293048620223999,12.94985198974609,39.64067077636719,-2.85736083984375,-1,2,1677557.946271542,4,2,1676669839.500757,0,0,0,0,0,0,0,0,0,1677560.467083,0,-0.03964233,98.57893,1676669838.938333,167772201,182416158,0,0,1,1676669838.911374,1,0.4,1
1676669844.691299,97,1676669843.982359,34.21415755560826,-118.3864558381416,246.8846,0.1216224,1.490531,-1,-1,10.15099423928351,14.91998103442783,-9999,1676669844.686624,13.22758483886719,38.90970611572266,-5.704742431640625,102.9659271240234,91.32714080810547,12.69885349273682,1677563.131046417,1.237579345703125,0.7617645263671875,0.704315185546875,1677563.131046417,0.7119956016540527,0.09732095897197723,0.2804819941520691,1677563.112794417,-123.5795440673828,127.7022705078125,-296.2738342285156,1677563.094946417,-0.6947982427777782,1.946326108673757,-0.8121155454278999,1.049622058868408,-0.1381122320890427,-0.07640339434146881,0.08223682641983032,-0.08438688516616821,0.2658514678478241,2,0.04957802168233,0.789748577047239,-0.4830121285645059,0.3748845097555457,0.6400225758552551,0.7257442474365234,0.2523216009140015,12.95669555664062,38.89351654052734,-4.445953369140625,-1,2,1677557.946271542,4,2,1676669839.500757,0,0,0,0,0,0,0,0,0,1677560.467083,0,-0.03964233,98.57893,1676669838.938333,167772201,182416158,0,0,1,1676669838.911374,1,0.4,1
1676669844.751001,98,1676669843.982359,34.21415755560826,-118.3864558381416,246.8846,0.1216224,1.490531,-1,-1,10.15099423928351,14.91998103442783,-9999,1676669844.746226,14.51220703125,37.83921051025391,-5.68353271484375,103.0485992431641,91.40981292724609,12.69899749755859,1677563.190803292,0.623748779296875,0.5837554931640625,0.3052825927734375,1677563.190803292,0.3749384582042694,0.7028337717056274,1.109197020530701,1677563.172854292,-122.1735534667969,126.7741546630859,-296.7489929199219,1677563.154703292,-0.7614685214529788,1.903651829061333,-0.8132855353526627,0.2963215410709381,0.554632842540741,0.7494118809700012,0.6377995014190674,0.1206650733947754,0.3717269897460938,2,0.06492910116885042,0.7797687196676104,-0.4971008009534456,0.3750142602122749,0.6494013667106628,0.7265486121177673,0.2245100885629654,13.21566009521484,38.46003723144531,-5.737060546875,-1,2,1677557.946271542,4,2,1676669839.500757,0,0,0,0,0,0,0,0,0,1677560.467083,0,-0.03964233,98.57893,1676669838.938333,167772201,182416158,0,0,1,1676669838.911374,1,0.4,1
1676669844.811014,99,1676669843.982359,34.21415755560826,-118.3864558381416,246.8846,0.1216224,1.490531,-1,-1,10.15099423928351,14.91998103442783,-9999,1676669844.806146,15.59756469726562,36.31986999511719,-7.04620361328125,104.343505859375,92.70471954345703,12.69917488098145,1677563.250556292,0.8228759765625,1.259902954101562,0.515289306640625,1677563.190803292,0.3749384582042694,0.7028337717056274,1.109197020530701,1677563.232904292,-120.9591674804688,125.2727661132812,-297.600341796875,1677563.214455292,-0.8197434412047733,1.898682316693322,-0.7634296496526674,0.8752215504646301,-0.06957825273275375,0.8732032775878906,-0.2679181694984436,-0.2775239944458008,-0.07171608507633209,2,0.1017486444132189,0.7784471683577718,-0.4930899029253699,0.3748725877413314,0.6839794516563416,0.691403329372406,0.232665553689003,15.48170471191406,37.01456451416016,-5.84832763671875,-1,2,1677557.946271542,4,2,1676669839.500757,0,0,0,0,0,0,0,0,0,1677560.467083,0,-0.03964233,98.57893,1676669838.938333,167772201,182416158,0,0,1,1676669838.911374,1,0.4,1
1676669844.870479,100,1676669843.982359,34.21415755560826,-118.3864558381416,246.8846,0.1216224,1.490531,-1,-1,10.15099423928351,14.91998103442783,-9999,1676669844.865779,14.51480102539062,36.09880065917969,-7.664337158203125,111.5531311035156,99.91433715820312,12.69940757751465,1677563.310308292,0.5152130126953125,0.6075897216796875,-0.5213165283203125,1677563.310308292,1.228097558021545,-0.5332005620002747,0.3713202774524689,1677563.292957292,-122.1506500244141,124.9444427490234,-297.9967651367188,1677563.274208292,-0.8946099469829608,1.885438926699702,-0.8037735881707093,0.6869338154792786,1.769025444984436,-0.7804321646690369,0.2543057799339294,0.5737974047660828,0.1643903255462646,2,0.1148792002825751,0.7708374349061548,-0.5192723740353167,0.3506688249085347,0.6599245071411133,0.7199800610542297,0.2147751599550247,15.45172882080078,36.79438781738281,-7.314849853515625,-1,2,1677557.946271542,4,2,1676669839.500757,0,0,0,0,0,0,0,0,0,1677560.467083,0,-0.03964233,98.57893,1676669838.938333,167772201,182416158,0,0,1,1676669838.911374,1,0.4,1
1676669844.930353,101,1676669843.982359,34.21415755560826,-118.3864558381416,246.8846,0.1216224,1.490531,-1,-1,10.15099423928351,14.91998103442783,-9999,1676669844.925682,15.10627746582031,35.55509948730469,-9.90179443359375,112.2362060546875,100.597412109375,12.69957637786865,1677563.370061292,0.124237060546875,1.032974243164062,0.1959991455078125,1677563.370061292,-0.02726917155086994,-0.4379757344722748,-0.4660047292709351,1677563.353011292,-121.8738250732422,124.3031616210938,-300.6228942871094,1677563.333961292,-0.9844572889627686,1.81540780245386,-0.8168544928230005,1.319266557693481,-0.7281298041343689,0.26441290974617,-0.408403217792511,-0.2077560424804688,-0.5436601638793945,2,0.1263561309764657,0.7529423235555209,-0.5428232845766151,0.3499353974647165,0.6641404628753662,0.7289962768554688,0.1657760292291641,14.63166046142578,36.10166931152344,-9.2113037109375,-1,2,1677557.946271542,4,2,1676669839.500757,0,0,0,0,0,0,0,0,0,1677560.467083,0,-0.03964233,98.57893,1676669838.938333,167772201,182416158,0,0,1,1676669838.911374,1,0.4,1
1676669844.990027,102,1676669843.982359,34.21415755560826,-118.3864558381416,246.8846,0.1216224,1.490531,-1,-1,10.15099423928351,14.91998103442783,-9999,1676669844.9852,12.32577514648438,36.17931365966797,-8.948486328125,108.5540008544922,96.91521453857422,12.69980049133301,1677563.429814292,0.4922027587890625,0.8461456298828125,-0.2344207763671875,1677563.429814292,-0.8033374547958374,-1.364745736122131,-0.7537494301795959,1677563.413067292,-123.9435882568359,125.0249938964844,-300.4102172851562,1677563.393714292,-1.000091674393884,1.762654400792312,-0.8373996216709368,-0.919062077999115,-1.576723098754883,-0.728514552116394,-0.4235482811927795,0.4503476023674011,-0.2232544422149658,2,0.1110258320255701,0.7426268448846964,-0.5539501319725149,0.359607883900935,0.6571145057678223,0.7429049611091614,0.1276427358388901,14.05937957763672,35.93381500244141,-9.52264404296875,-1,2,1677557.946271542,4,2,1676669839.500757,0,0,0,0,0,0,0,0,0,1677560.467083,0,-0.03964233,98.57893,1676669838.938333,167772201,182416158,0,0,1,1676669838.911374,1,0.4,1
1676669845.050353,103,1676669843.982359,34.21415755560826,-118.3864558381416,246.8846,0.1216224,1.490531,-1,-1,10.15099423928351,14.91998103442783,-9999,1676669845.045123,9.7530517578125,36.73119354248047,-9.178070068359375,109.5397338867188,97.90094757080078,12.6999626159668,1677563.489567292,1.000808715820312,0.6442108154296875,-0.0024566650390625,1677563.489567292,1.430867195129395,-0.8141704201698303,-0.9212273359298706,1677563.473124292,-126.7841033935547,125.5310363769531,-299.3226928710938,1677563.453467292,-0.9136227682388059,1.743227635200185,-0.8739131600960683,-0.4110844135284424,-0.5649971961975098,-0.8817716240882874,0.1048089265823364,-0.0807044506072998,-0.2900863885879517,2,0.06144496495260687,0.7424867388858731,-0.5478898343796327,0.3804663631945939,0.6323125958442688,0.7668463587760925,0.1101240813732147,11.34514617919922,36.5894775390625,-9.1571044921875,-1,2,1677557.946271542,4,2,1676669839.500757,0,0,0,0,0,0,0,0,0,1677560.467083,0,-0.03964233,98.57893,1676669838.938333,167772201,182416158,0,0,1,1676669838.911374,1,0.4,1
1676669845.11035,104,1676669843.982359,34.21415755560826,-118.3864558381416,246.8846,0.1216224,1.490531,-1,-1,10.15099423928351,14.91998103442783,-9999,1676669845.104888,8.058792114257812,35.82605743408203,-13.08135986328125,111.6746368408203,100.0358428955078,12.70024299621582,1677563.549320292,0.7167205810546875,0.701812744140625,0.1371307373046875,1677563.489567292,1.430867195129395,-0.8141704201698303,-0.9212273359298706,1677563.533180292,-129.0739898681641,124.9381408691406,-304.1250305175781,1677563.513219292,-1.00029712162245,1.633380382148232,-0.931903300480888,2.193089962005615,-1.223431468009949,-0.4510027170181274,0.4397264719009399,-0.1871252059936523,0.004117254167795181,2,0.0423644913981438,0.7189247071953648,-0.580677806656774,0.3796917800905271,0.5951398611068726,0.8027563691139221,0.03729496896266937,9.204399108886719,36.82489013671875,-9.862762451171875,-1,2,1677557.946271542,4,2,1676669839.500757,0,0,0,0,0,0,0,0,0,1677560.467083,0,-0.03964233,98.57893,1676669838.938333,167772201,182416158,0,0,1,1676669838.911374,1,0.4,1
1676669845.169464,105,1676669844.982074,34.21415733059501,-118.3864524930516,246.8918,0.04318635,1.396828,-1,-1,12.50909850298192,17.81497082914763,-9999,1676669845.164739,8.059829711914062,35.54325103759766,-13.34051513671875,110.5935516357422,98.95475769042969,12.70036220550537,1677563.609073292,0.493316650390625,0.794403076171875,-0.17022705078125,1677563.609073292,-0.7569308280944824,-0.558354377746582,0.1377567946910858,1677563.593234292,-128.7877807617188,124.2235870361328,-304.5043334960938,1677563.572972292,-1.137891069963771,1.479322570514442,-0.9280423867095486,0.07160433381795883,0.0880105197429657,0.2460840940475464,-0.1417571306228638,-0.06134271621704102,0.05493615567684174,2,0.04621376622015444,0.6859210693312442,-0.6100300975145589,0.3940050630232719,0.5968963503837585,0.8004480600357056,-0.0547531470656395,7.934951782226562,35.37357330322266,-14.12930297851562,-1,2,1677557.946271542,4,2,1676669839.500757,0,0,0,0,0,0,0,0,0,1677560.467083,0,-0.03964233,98.57893,1676669838.938333,167772201,182416158,0,0,1,1676669838.911374,1,0.4,1
1676669845.229018,106,1676669844.982074,34.21415733059501,-118.3864524930516,246.8918,0.04318635,1.396828,-1,-1,12.50909850298192,17.81497082914763,-9999,1676669845.224268,6.971237182617188,36.02892303466797,-12.9312744140625,107.5790710449219,95.94027709960938,12.70050048828125,1677563.668825292,0.78851318359375,0.75628662109375,0.067962646484375,1677563.668825292,0.4062838554382324,-0.7216934561729431,-0.2871302962303162,1677563.653288292,-129.4156341552734,124.9696960449219,-303.2980346679688,1677563.632725292,-1.084197220915983,1.499053079178457,-0.9195645492269325,-0.4424262642860413,-1.141910433769226,0.02582644671201706,0.054404616355896,-0.01887905597686768,-0.00351560115814209,2,0.03673821580807718,0.6905974048638688,-0.5974293013568787,0.4059602487231138,0.6046071648597717,0.7953377366065979,-0.04345105588436127,7.901809692382812,35.99378967285156,-12.9815673828125,-1,2,1677557.946271542,4,2,1676669839.500757,0,0,0,0,0,0,0,0,0,1677560.467083,0,-0.03964233,98.57893,1676669838.938333,167772201,182416158,0,0,1,1676669838.911374,1,0.4,1
1676669845.289018,107,1676669844.982074,34.21415733059501,-118.3864524930516,246.8918,0.04318635,1.396828,-1,-1,12.50909850298192,17.81497082914763,-9999,1676669845.284355,6.123992919921875,35.87638854980469,-14.435791015625,109.8913421630859,98.25255584716797,12.70063400268555,1677563.728578292,0.613311767578125,0.6933135986328125,-0.0110321044921875,1677563.728578292,0.890701949596405,-0.03598276898264885,-0.3876856863498688,1677563.713343292,-130.6382446289062,124.6791381835938,-304.9614562988281,1677563.692478292,-1.11004251526745,1.429620016231067,-0.9309646910583782,0.8458428978919983,-0.2373337894678116,-0.4545842707157135,0.1186420917510986,-0.10381680727005,0.1619223356246948,2,0.02056211291649329,0.6764404340869878,-0.6056762037211503,0.4185235123049666,0.5911204218864441,0.8021962642669678,-0.08401107788085938,6.37158203125,35.98898315429688,-13.37750244140625,-1,2,1677563.682519292,4,2,1676669845.237005,0,0,0,0,0,0,0,0,0,1677560.467083,0,-0.03964233,98.57893,1676669838.938333,167772201,182416158,0,0,1,1676669838.911374,1,0.4,1
1676669845.348583,108,1676669844.982074,34.21415733059501,-118.3864524930516,246.8918,0.04318635,1.396828,-1,-1,12.50909850298192,17.81497082914763,-9999,1676669845.343746,4.513748168945312,35.71840667724609,-15.08383178710938,110.6581573486328,99.01937103271484,12.70074272155762,1677563.788331292,0.6428375244140625,0.8792266845703125,-0.09991455078125,1677563.788331292,-0.1821769922971725,-0.6019039750099182,-0.241896778345108,1677563.773399292,-131.7201080322266,124.0579681396484,-305.8265075683594,1677563.752231292,-1.201314669340278,1.350644442097696,-0.9453108454552964,0.5158876776695251,-0.2679507434368134,-0.2577846646308899,0.003438830375671387,-0.03974384069442749,0.04890917241573334,2,0.02145505617546462,0.6600079910797052,-0.6275506975482457,0.4124431111839287,0.5713597536087036,0.8106789588928223,-0.1278582662343979,5.365142822265625,35.75423431396484,-14.5919189453125,-1,2,1677563.682519292,4,2,1676669845.237005,0,0,0,0,0,0,0,0,0,1677560.467083,0,-0.03964233,98.57893,1676669838.938333,167772201,182416158,0,0,1,1676669838.911374,1,0.4,1
1676669845.40867,109,1676669844.982074,34.21415733059501,-118.3864524930516,246.8918,0.04318635,1.396828,-1,-1,12.50909850298192,17.81497082914763,-9999,1676669845.403692,3.458572387695312,36.19614410400391,-13.95669555664062,109.2538604736328,97.61506652832031,12.70085906982422,1677563.848084292,0.72003173828125,0.7545318603515625,0.032806396484375,1677563.848084292,-0.01434698142111301,-0.7339479923248291,-0.01255014631897211,1677563.833454292,-133.1958618164062,124.6547393798828,-304.6109008789062,1677563.811984292,-1.202708812122795,1.319142919304749,-0.9597331155752272,-0.4520348608493805,-0.4847872257232666,-0.2370251715183258,0.1743439435958862,0.02953338623046875,0.06782130897045135,2,0.006701756213036703,0.6546166881049985,-0.6298653865129444,0.4179733481219713,0.5556670427322388,0.819038450717926,-0.1428641527891159,4.101211547851562,35.99645233154297,-14.55938720703125,-1,2,1677563.682519292,4,2,1676669845.237005,0,0,0,0,0,0,0,0,0,1677560.467083,0,-0.03964233,98.57893,1676669838.938333,167772201,182416158,0,0,1,1676669838.911374,1,0.4,1
1676669845.468885,110,1676669844.982074,34.21415733059501,-118.3864524930516,246.8918,0.04318635,1.396828,-1,-1,12.50909850298192,17.81497082914763,-9999,1676669845.463393,2.862579345703125,36.81045532226562,-13.47064208984375,108.7594909667969,97.12070465087891,12.70096874237061,1677563.907837292,0.9838409423828125,0.8091278076171875,-0.0884857177734375,1677563.907837292,-0.1357522457838058,-0.631956160068512,-0.06779742240905762,1677563.893511292,-133.7208709716797,125.4212646484375,-304.1546020507812,1677563.871737292,-1.190177685238767,1.293453304046765,-0.9667359578248358,0.008310937322676182,-0.1606868505477905,-0.109577864408493,0.253444492816925,-0.0606614351272583,0.1603071987628937,2,-0.00805509340536481,0.6497515928581973,-0.6280387417013914,0.4281648276226005,0.5462837219238281,0.8230361342430115,-0.1555159687995911,3.086166381835938,36.22353363037109,-14.21096801757812,-1,2,1677563.682519292,4,2,1676669845.237005,0,0,0,0,0,0,0,0,0,1677560.467083,0,-0.03964233,98.57893,1676669838.938333,167772201,182416158,0,0,1,1676669838.911374,1,0.4,1
1676669845.52817,111,1676669844.982074,34.21415733059501,-118.3864524930516,246.8918,0.04318635,1.396828,-1,-1,12.50909850298192,17.81497082914763,-9999,1676669845.523193,1.947128295898438,37.42996978759766,-12.81893920898438,107.6281280517578,95.98933410644531,12.70110416412354,1677563.967590292,1.049484252929688,0.6731109619140625,0.2327117919921875,1677563.967590292,-0.4160952270030975,1.006465077400208,0.4558530151844025,1677563.953565292,-134.8972320556641,126.3164978027344,-303.6376342773438,1677563.931489292,-1.178997027278556,1.27926423961785,-0.9730216585078476,-0.2893877029418945,-0.4662717580795288,0.1175309121608734,0.4896754622459412,-0.07135635614395142,0.2063626646995544,2,-0.01846615995346856,0.6471308659967548,-0.6262627112703296,0.4343682111483377,0.5390568375587463,0.8265900611877441,-0.1617612838745117,2.201904296875,37.10514831542969,-13.87051391601562,-1,2,1677563.682519292,4,2,1676669845.237005,0,0,0,0,0,0,0,0,0,1677560.467083,0,-0.03964233,98.57893,1676669838.938333,167772201,182416158,0,0,1,1676669838.911374,1,0.4,1
1676669845.589175,112,1676669844.982074,34.21415733059501,-118.3864524930516,246.8918,0.04318635,1.396828,-1,-1,12.50909850298192,17.81497082914763,-9999,1676669845.58281,4.025146484375,38.84325408935547,-10.85919189453125,108.1753387451172,96.53655242919922,12.70139122009277,1677564.027342292,0.548553466796875,0.8365631103515625,0.1070404052734375,1677564.027342292,-1.625648379325867,2.836103439331055,0.6209461092948914,1677564.013615292,-133.0921020507812,127.3155822753906,-302.0449523925781,1677563.991242292,-1.12605212331607,1.363229842572579,-0.9575066865393183,-0.564262866973877,1.351559281349182,0.7635220885276794,0.2607987523078918,-0.1237742304801941,0.4029585123062134,2,-0.004041465289920054,0.6638359247096604,-0.6133293028923446,0.4279399007923252,0.5632062554359436,0.8177590370178223,-0.1186110600829124,2.339309692382812,37.91117095947266,-12.15475463867188,-1,2,1677563.682519292,4,2,1676669845.237005,0,0,0,0,0,0,0,0,0,1677560.467083,0,-0.03964233,98.57893,1676669838.938333,167772201,182416158,0,0,1,1676669838.911374,1,0.4,1
