loggingTime,loggingSample,locationTimestamp_since1970,locationLatitude,locationLongitude,locationAltitude,locationSpeed,locationSpeedAccuracy,locationCourse,locationCourseAccuracy,locationVerticalAccuracy,locationHorizontalAccuracy,locationFloor,locationHeadingTimestamp_since1970,locationHeadingX,locationHeadingY,locationHeadingZ,locationTrueHeading,locationMagneticHeading,locationHeadingAccuracy,accelerometerTimestamp_sinceReboot,accelerometerAccelerationX,accelerometerAccelerationY,accelerometerAccelerationZ,gyroTimestamp_sinceReboot,gyroRotationX,gyroRotationY,gyroRotationZ,magnetometerTimestamp_sinceReboot,magnetometerX,magnetometerY,magnetometerZ,motionTimestamp_sinceReboot,motionYaw,motionRoll,motionPitch,motionRotationRateX,motionRotationRateY,motionRotationRateZ,motionUserAccelerationX,motionUserAccelerationY,motionUserAccelerationZ,motionAttitudeReferenceFrame,motionQuaternionX,motionQuaternionY,motionQuaternionZ,motionQuaternionW,motionGravityX,motionGravityY,motionGravityZ,motionMagneticFieldX,motionMagneticFieldY,motionMagneticFieldZ,motionHeading,motionMagneticFieldCalibrationAccuracy,activityTimestamp_sinceReboot,activity,activityActivityConfidence,activityActivityStartDate,pedometerStartDate,pedometerNumberofSteps,pedometerAverageActivePace,pedometerCurrentPace,pedometerCurrentCadence,pedometerDistance,pedometerFloorAscended,pedometerFloorDescended,pedometerEndDate,altimeterTimestamp_sinceReboot,altimeterReset,altimeterRelativeAltitude,altimeterPressure,IP_Timestamp_since1970,IP_en0,IP_pdp_ip0,deviceID,deviceOrientationTimeStamp_since1970,deviceOrientation,batteryTimeStamp_since1970,batteryState,batteryLevel,label
1676820299.2634,1,1676820298.332498,34.04826098964914,-117.813619418277,217.2581,0.3854362,1.638801,16.57865572282629,117.9829085405914,6.704205889309022,15.03397589218162,-9999,1676820299.257123,22.60395050048828,-17.86932754516602,-36.74520874023438,264.7232971191406,253.2410583496094,12.46584510803223,1757480.170968292,-0.0616302490234375,-0.2438201904296875,-0.9942474365234375,1757480.142336292,-0.6401767730712891,-0.3090470731258392,0.1318664252758026,1757480.141132292,-120.1871032714844,62.41609191894531,-318.5606079101562,1757480.143581292,0.5792378556484787,-0.03020753965089214,0.2900468503968105,-0.6568244099617004,-0.3511802852153778,0.1241425648331642,-0.01797943934798241,0.02647557854652405,-0.1674355268478394,2,0.1427491164929858,0.02694481496723304,0.2804650860576658,0.9488078310205367,-0.02894138358533382,-0.2859971225261688,-0.9577933549880981,22.91538238525391,-18.18540573120117,-36.069091796875,-1,2,1757468.787300875,4,2,1676820287.871968,0,0,0,0,0,0,0,0,0,1757477.711265,0,0.06869507,99.08904,1676820299.263031,0,182416158,0,0,1,1676820299.235293,1,0.82,1
1676820299.291506,2,1676820298.332498,34.04826098964914,-117.813619418277,217.2581,0.3854362,1.638801,16.57865572282629,117.9829085405914,6.704205889309022,15.03397589218162,-9999,1676820299.277026,22.18346405029297,-17.66640472412109,-37.32119750976562,264.8507690429688,253.3685302734375,12.46590900421143,1757480.20457825,-0.097808837890625,-0.246246337890625,-0.8673553466796875,1757480.175947292,-0.5755367875099182,-0.5425836443901062,-0.01962723024189472,1757480.20118525,-121.4250793457031,63.52984619140625,-319.3605651855469,1757480.143581292,0.5792378556484787,-0.03020753965089214,0.2900468503968105,-0.6568244099617004,-0.3511802852153778,0.1241425648331642,-0.01797943934798241,0.02647557854652405,-0.1674355268478394,2,0.1427491164929858,0.02694481496723304,0.2804650860576658,0.9488078310205367,-0.02894138358533382,-0.2859971225261688,-0.9577933549880981,22.91538238525391,-18.18540573120117,-36.069091796875,-1,2,1757468.787300875,4,2,1676820287.871968,0,0,0,0,0,0,0,0,0,1757477.711265,0,0.06869507,99.08904,1676820299.263031,0,182416158,0,0,1,1676820299.235293,1,0.82,1
1676820299.328671,3,1676820298.332498,34.04826098964914,-117.813619418277,217.2581,0.3854362,1.638801,16.57865572282629,117.9829085405914,6.704205889309022,15.03397589218162,-9999,1676820299.316677,21.96003723144531,-17.09237670898438,-37.32791137695312,265.0560913085938,253.5738525390625,12.46602058410645,1757480.23818725,-0.06304931640625,-0.2424774169921875,-0.9118194580078125,1757480.20955725,-0.2412368506193161,0.06082047522068024,-0.09107691049575806,1757480.23121325,-121.2441558837891,64.11968994140625,-319.8829345703125,1757480.20333325,0.5772881515701667,-0.05646573491635287,0.2557689243244437,-0.3432380259037018,-0.07639900594949722,-0.1054169833660126,-0.03623579442501068,0.01025253534317017,0.0772857666015625,2,0.1301812311289212,0.009448721420086752,0.2787643364020952,0.9514484483529601,-0.0545998252928257,-0.2529893815517426,-0.9659271240234375,21.8065185546875,-17.15349197387695,-37.07540893554688,-1,2,1757468.787300875,4,2,1676820287.871968,0,0,0,0,0,0,0,0,0,1757477.711265,0,0.06869507,99.08904,1676820299.263031,0,182416158,0,0,1,1676820299.235293,1,0.82,1
1676820299.362428,4,1676820298.332498,34.04826098964914,-117.813619418277,217.2581,0.3854362,1.638801,16.57865572282629,117.9829085405914,6.704205889309022,15.03397589218162,-9999,1676820299.356513,22.08358001708984,-17.17445373535156,-37.005615234375,265.0838012695312,253.6015625,12.46610832214355,1757480.27179725,-0.0616912841796875,-0.2639312744140625,-0.9464111328125,1757480.24316725,0.3030712008476257,0.1183572709560394,-0.03649649024009705,1757480.26123525,-121.0034790039062,63.32444763183594,-319.3667297363281,1757480.26308425,0.5745379318985276,-0.05012190541900115,0.2626138219497464,0.3892291188240051,-0.02930307574570179,-0.008109686896204948,-0.0007654093205928802,0.01648727059364319,0.02192080020904541,2,0.1325638943310728,0.01326066420793596,0.2776604596028374,0.9513967554789694,-0.0483831986784935,-0.2596056461334229,-0.9645019173622131,22.08358001708984,-17.17445373535156,-37.005615234375,-1,2,1757468.787300875,4,2,1676820287.871968,0,0,0,0,0,0,0,0,0,1757477.711265,0,0.06869507,99.08904,1676820299.263031,0,182416158,0,0,1,1676820299.235293,1,0.82,1
1676820299.391168,5,1676820298.332498,34.04826098964914,-117.813619418277,217.2581,0.3854362,1.638801,16.57865572282629,117.9829085405914,6.704205889309022,15.03397589218162,-9999,1676820299.376407,21.96262359619141,-17.781982421875,-36.92025756835938,265.0302124023438,253.5479736328125,12.46614837646484,1757480.30540825,-0.0721282958984375,-0.2642974853515625,-0.91070556640625,1757480.27677625,0.3212784230709076,0.00153557863086462,0.03189987689256668,1757480.29126025,-121.1404876708984,63.17221069335938,-319.3501586914062,1757480.26308425,0.5745379318985276,-0.05012190541900115,0.2626138219497464,0.3892291188240051,-0.02930307574570179,-0.008109686896204948,-0.0007654093205928802,0.01648727059364319,0.02192080020904541,2,0.1325638943310728,0.01326066420793596,0.2776604596028374,0.9513967554789694,-0.0483831986784935,-0.2596056461334229,-0.9645019173622131,22.08358001708984,-17.17445373535156,-37.005615234375,-1,2,1757468.787300875,4,2,1676820287.871968,0,0,0,0,0,0,0,0,0,1757477.711265,0,0.06869507,99.08904,1676820299.263031,0,182416158,0,0,1,1676820299.235293,1,0.82,1
1676820299.425877,6,1676820298.332498,34.04826098964914,-117.813619418277,217.2581,0.3854362,1.638801,16.57865572282629,117.9829085405914,6.704205889309022,15.03397589218162,-9999,1676820299.416177,21.96746826171875,-17.57564926147461,-36.77618408203125,264.9934997558594,253.5112609863281,12.46621608734131,1757480.33901825,-0.0643768310546875,-0.26080322265625,-0.8961944580078125,1757480.31038725,0.04544178396463394,0.04086674004793167,0.02279559336602688,1757480.32128425,-121.1422119140625,62.85948181152344,-319.2105102539062,1757480.32283525,0.5765020884934232,-0.05071005010882285,0.2733111667537929,0.002381748054176569,0.07941580563783646,-0.003976098261773586,-0.03569633141160011,0.00711899995803833,0.05811071395874023,2,0.137707983387683,0.01463489892440284,0.2782237977884711,0.950480916403323,-0.04880689084529877,-0.2699211835861206,-0.9616446495056152,21.96746826171875,-17.57564926147461,-36.77618408203125,-1,2,1757468.787300875,4,2,1676820287.871968,0,0,0,0,0,0,0,0,0,1757477.711265,0,0.06869507,99.08904,1676820299.263031,0,182416158,0,0,1,1676820299.235293,1,0.82,1
1676820299.460695,7,1676820299.282503,34.0482725305034,-117.8136050727483,217.2811,0.7437319,1.479233,28.25683698244017,80.68184873832814,6.654349716769406,13.9793426910568,-9999,1676820299.43616,22.17292022705078,-17.77797698974609,-36.89569091796875,265.0198364257812,253.53759765625,12.46624660491943,1757480.37262825,-0.0742034912109375,-0.311676025390625,-0.925537109375,1757480.34399725,0.03783978894352913,0.07115620374679565,-0.04378795996308327,1757480.35130725,-120.9043884277344,62.85069274902344,-319.5308837890625,1757480.32283525,0.5765020884934232,-0.05071005010882285,0.2733111667537929,0.002381748054176569,0.07941580563783646,-0.003976098261773586,-0.03569633141160011,0.00711899995803833,0.05811071395874023,2,0.137707983387683,0.01463489892440284,0.2782237977884711,0.950480916403323,-0.04880689084529877,-0.2699211835861206,-0.9616446495056152,21.96746826171875,-17.57564926147461,-36.77618408203125,-1,2,1757468.787300875,4,2,1676820287.871968,0,0,0,0,0,0,0,0,0,1757477.711265,0,0.06869507,99.08904,1676820299.263031,0,182416158,0,0,1,1676820299.235293,1,0.82,1
1676820299.495523,8,1676820299.282503,34.0482725305034,-117.8136050727483,217.2811,0.7437319,1.479233,28.25683698244017,80.68184873832814,6.654349716769406,13.9793426910568,-9999,1676820299.47591,22.50115966796875,-17.79365921020508,-37.06057739257812,264.9212951660156,253.4390411376953,12.46623134613037,1757480.40623725,-0.0504302978515625,-0.286834716796875,-0.9642486572265625,1757480.37760725,0.05165920034050941,0.3055822849273682,0.0382579080760479,1757480.38133125,-120.5470275878906,62.73001098632812,-319.50146484375,1757480.38258625,0.576197672186973,-0.04190836881410444,0.2749765026666443,0.06010835617780685,0.2816981077194214,0.03640476241707802,-0.02629778534173965,-0.03749668598175049,0.027565598487854,2,0.1372751105543432,0.01903348651040262,0.278633581036999,0.9503455666136105,-0.04032213240861893,-0.2715243101119995,-0.9615865349769592,22.50115966796875,-17.79365921020508,-37.06057739257812,-1,2,1757468.787300875,4,2,1676820287.871968,0,0,0,0,0,0,0,0,0,1757477.711265,0,0.06869507,99.08904,1676820299.263031,0,182416158,0,0,1,1676820299.235293,1,0.82,1
1676820299.526655,9,1676820299.282503,34.0482725305034,-117.8136050727483,217.2811,0.7437319,1.479233,28.25683698244017,80.68184873832814,6.654349716769406,13.9793426910568,-9999,1676820299.516112,22.693115234375,-17.93897247314453,-36.89517211914062,264.7391052246094,253.2568511962891,12.4659538269043,1757480.43984825,-0.0544281005859375,-0.313690185546875,-0.99859619140625,1757480.41121725,0.1629175394773483,0.1896423697471619,0.0481126680970192,1757480.41135425,-120.3164825439453,62.59121704101562,-319.3967895507812,1757480.38258625,0.576197672186973,-0.04190836881410444,0.2749765026666443,0.06010835617780685,0.2816981077194214,0.03640476241707802,-0.02629778534173965,-0.03749668598175049,0.027565598487854,2,0.1372751105543432,0.01903348651040262,0.278633581036999,0.9503455666136105,-0.04032213240861893,-0.2715243101119995,-0.9615865349769592,22.50115966796875,-17.79365921020508,-37.06057739257812,-1,2,1757468.787300875,4,2,1676820287.871968,0,0,0,0,0,0,0,0,0,1757477.711265,0,0.06869507,99.08904,1676820299.263031,0,182416158,0,0,1,1676820299.235293,1,0.82,1
1676820299.563687,10,1676820299.282503,34.0482725305034,-117.8136050727483,217.2811,0.7437319,1.479233,28.25683698244017,80.68184873832814,6.654349716769406,13.9793426910568,-9999,1676820299.555717,23.07724761962891,-18.04732513427734,-36.19497680664062,264.4486083984375,252.9663696289062,12.46571731567383,1757480.47345825,-0.0185394287109375,-0.271820068359375,-1.039077758789062,1757480.44482725,0.04143026471138,0.1877611130475998,0.1487255543470383,1757480.47140425,-120.4085540771484,62.17405700683594,-319.0187377929688,1757480.44233725,0.5805884521679641,-0.03215467815722285,0.2820300237355544,0.05014416202902794,0.1823646724224091,0.1399119198322296,-0.02370172925293446,-0.03495696187019348,-0.03464818000793457,2,0.1392061369427531,0.02497336941323054,0.2811912941656175,0.9491731500446532,-0.03087900392711163,-0.2783060371875763,-0.9599959850311279,23.05875396728516,-18.00410842895508,-36.47802734375,-1,2,1757468.787300875,4,2,1676820287.871968,0,0,0,0,0,0,0,0,0,1757477.711265,0,0.06869507,99.08904,1676820299.263031,0,182416158,0,0,1,1676820299.235293,1,0.82,1
1676820299.595201,11,1676820299.282503,34.0482725305034,-117.8136050727483,217.2811,0.7437319,1.479233,28.25683698244017,80.68184873832814,6.654349716769406,13.9793426910568,-9999,1676820299.575617,22.74586486816406,-18.00976943969727,-36.4510498046875,264.4188842773438,252.9366455078125,12.46569919586182,1757480.50706825,-0.053192138671875,-0.2906036376953125,-0.934295654296875,1757480.47843725,-0.007412109989672899,-0.1134724989533424,0.03959188237786293,1757480.50142925,-120.2796020507812,62.42536926269531,-318.650634765625,1757480.50208825,0.5845265121561425,-0.03512830857185767,0.28200894986389,0.02705699391663074,-0.05952505767345428,0.01932903751730919,-0.01189007982611656,-0.01283666491508484,0.006200969219207764,2,0.1395674215044198,0.02383394960390279,0.2828530964612614,0.9486554456672639,-0.03373374417424202,-0.278285801410675,-0.959905743598938,22.79973602294922,-18.02609252929688,-36.34646606445312,-1,2,1757468.787300875,4,2,1676820287.871968,0,0,0,0,0,0,0,0,0,1757477.711265,0,0.06869507,99.08904,1676820299.263031,0,182416158,0,0,1,1676820299.235293,1,0.82,1
1676820299.630052,12,1676820299.282503,34.0482725305034,-117.8136050727483,217.2811,0.7437319,1.479233,28.25683698244017,80.68184873832814,6.654349716769406,13.9793426910568,-9999,1676820299.615454,22.50559234619141,-18.05545043945312,-36.08108520507812,264.3848571777344,252.9026184082031,12.46553611755371,1757480.54067725,-0.066497802734375,-0.289520263671875,-0.9263763427734375,1757480.51204725,0.05550560355186462,0.001991511788219213,0.02440787106752396,1757480.53145525,-120.6002502441406,62.50579833984375,-318.978515625,1757480.50208825,0.5845265121561425,-0.03512830857185767,0.28200894986389,0.02705699391663074,-0.05952505767345428,0.01932903751730919,-0.01189007982611656,-0.01283666491508484,0.006200969219207764,2,0.1395674215044198,0.02383394960390279,0.2828530964612614,0.9486554456672639,-0.03373374417424202,-0.278285801410675,-0.959905743598938,22.79973602294922,-18.02609252929688,-36.34646606445312,-1,2,1757468.787300875,4,2,1676820287.871968,0,0,0,0,0,0,0,0,0,1757477.711265,0,0.06869507,99.08904,1676820299.263031,0,182416158,0,0,1,1676820299.235293,1,0.82,1
1676820299.659969,13,1676820299.282503,34.0482725305034,-117.8136050727483,217.2811,0.7437319,1.479233,28.25683698244017,80.68184873832814,6.654349716769406,13.9793426910568,-9999,1676820299.655346,22.73190307617188,-18.39402389526367,-36.05194091796875,264.2466430664062,252.764404296875,12.46537971496582,1757480.57428825,-0.0469207763671875,-0.2823638916015625,-0.9425506591796875,1757480.54565725,0.09059621393680573,0.1200707480311394,0.05589282512664795,1757480.56148025,-120.381591796875,62.01878356933594,-318.3345031738281,1757480.56183925,0.5868914124474076,-0.03225403414724046,0.2861259486377326,0.1144132167100906,0.1152279004454613,0.04792129248380661,-0.02991473488509655,-0.002018272876739502,0.02352756261825562,2,0.1410799295029132,0.02595565171505578,0.2840591361326068,0.9480155097609645,-0.03093736432492733,-0.2822377979755402,-0.9588454961776733,22.73190307617188,-18.39402389526367,-36.05194091796875,-1,2,1757468.787300875,4,2,1676820287.871968,0,0,0,0,0,0,0,0,0,1757477.711265,0,0.06869507,99.08904,1676820299.263031,0,182416158,0,0,1,1676820299.235293,1,0.82,1
1676820299.694802,14,1676820299.282503,34.0482725305034,-117.8136050727483,217.2811,0.7437319,1.479233,28.25683698244017,80.68184873832814,6.654349716769406,13.9793426910568,-9999,1676820299.675188,22.59756469726562,-18.09848785400391,-36.11529541015625,264.2045593261719,252.7223052978516,12.46531867980957,1757480.60789825,-0.042510986328125,-0.2978057861328125,-0.9364166259765625,1757480.57926725,0.1306861042976379,0.09653133153915405,0.03033793158829212,1757480.59150425,-120.4813232421875,62.03083801269531,-318.6278076171875,1757480.56183925,0.5868914124474076,-0.03225403414724046,0.2861259486377326,0.1144132167100906,0.1152279004454613,0.04792129248380661,-0.02991473488509655,-0.002018272876739502,0.02352756261825562,2,0.1410799295029132,0.02595565171505578,0.2840591361326068,0.9480155097609645,-0.03093736432492733,-0.2822377979755402,-0.9588454961776733,22.73190307617188,-18.39402389526367,-36.05194091796875,-1,2,1757468.787300875,4,2,1676820287.871968,0,0,0,0,0,0,0,0,0,1757477.711265,0,0.06869507,99.08904,1676820299.263031,0,182416158,0,0,1,1676820299.235293,1,0.82,1
1676820299.729605,15,1676820299.282503,34.0482725305034,-117.8136050727483,217.2811,0.7437319,1.479233,28.25683698244017,80.68184873832814,6.654349716769406,13.9793426910568,-9999,1676820299.714906,22.83846282958984,-18.68263244628906,-36.08990478515625,264.1286010742188,252.6463623046875,12.4649019241333,1757480.64150825,-0.019927978515625,-0.3003082275390625,-1.008087158203125,1757480.61287725,0.03085591644048691,0.1748021692037582,0.006295179948210716,1757480.62152525,-120.1768188476562,61.69331359863281,-318.6173706054688,1757480.62159125,0.5882278113747864,-0.02589602848784023,0.2910461604897903,0.005945987533777952,0.172650545835495,0.007022356148809195,-0.01422784850001335,-0.01373523473739624,0.009243547916412354,2,0.1424852900466949,0.02977300347785838,0.2850068450641685,0.9474084154812703,-0.02480417862534523,-0.2869545519351959,-0.9576230049133301,22.83846282958984,-18.68263244628906,-36.08990478515625,-1,2,1757468.787300875,4,2,1676820287.871968,0,0,0,0,0,0,0,0,0,1757477.711265,0,0.06869507,99.08904,1676820299.263031,0,182416158,0,0,1,1676820299.235293,1,0.82,1
1676820299.770016,16,1676820299.282503,34.0482725305034,-117.8136050727483,217.2811,0.7437319,1.479233,28.25683698244017,80.68184873832814,6.654349716769406,13.9793426910568,-9999,1676820299.755044,23.16178131103516,-18.45310211181641,-36.34600830078125,264.116943359375,252.6347045898438,12.4640007019043,1757480.67511825,-0.027435302734375,-0.293487548828125,-0.9810638427734375,1757480.64648725,-0.0107876667752862,0.06369535624980927,-0.001872202265076339,1757480.65154525,-120.1132507324219,61.99351501464844,-318.8664245605469,1757480.62159125,0.5882278113747864,-0.02589602848784023,0.2910461604897903,0.005945987533777952,0.172650545835495,0.007022356148809195,-0.01422784850001335,-0.01373523473739624,0.009243547916412354,2,0.1424852900466949,0.02977300347785838,0.2850068450641685,0.9474084154812703,-0.02480417862534523,-0.2869545519351959,-0.9576230049133301,22.83846282958984,-18.68263244628906,-36.08990478515625,-1,2,1757468.787300875,4,2,1676820287.871968,0,0,0,0,0,0,0,0,0,1757477.711265,0,0.06869507,99.08904,1676820299.263031,0,182416158,0,0,1,1676820299.235293,1,0.82,1
1676820299.795765,17,1676820299.282503,34.0482725305034,-117.8136050727483,217.2811,0.7437319,1.479233,28.25683698244017,80.68184873832814,6.654349716769406,13.9793426910568,-9999,1676820299.774705,22.97986602783203,-18.23596572875977,-35.98114013671875,264.1784362792969,252.6961975097656,12.46370506286621,1757480.70872825,-0.060455322265625,-0.3139495849609375,-0.813995361328125,1757480.68009725,0.05805611237883568,-0.04661037772893906,-0.04381965100765228,1757480.68156825,-120.1540832519531,62.34632873535156,-318.412841796875,1757480.68134225,0.5876139566211761,-0.02450907066996679,0.2913863750805405,0.05417625978589058,-0.0547294095158577,-0.04706422984600067,-0.006509987637400627,-0.006024092435836792,-0.01657748222351074,2,0.1424579289686038,0.03043535002450345,0.2848056565019461,0.9474520567910659,-0.02347357757389545,-0.2872804403305054,-0.9575588703155518,22.97986602783203,-18.23596572875977,-35.98114013671875,-1,2,1757468.787300875,4,2,1676820287.871968,0,0,0,0,0,0,0,0,0,1757477.711265,0,0.06869507,99.08904,1676820299.263031,0,182416158,0,0,1,1676820299.235293,1,0.82,1
1676820299.829295,18,1676820299.282503,34.0482725305034,-117.8136050727483,217.2811,0.7437319,1.479233,28.25683698244017,80.68184873832814,6.654349716769406,13.9793426910568,-9999,1676820299.814779,23.3648681640625,-18.43732070922852,-35.528076171875,264.1170654296875,252.6348266601562,12.46359252929688,1757480.74233825,-0.019683837890625,-0.3201751708984375,-0.959381103515625,1757480.71370725,0.4907433390617371,0.4237781763076782,0.02990623377263546,1757480.74161425,-119.3501434326172,61.69821166992188,-317.7721252441406,1757480.68134225,0.5876139566211761,-0.02450907066996679,0.2913863750805405,0.05417625978589058,-0.0547294095158577,-0.04706422984600067,-0.006509987637400627,-0.006024092435836792,-0.01657748222351074,2,0.1424579289686038,0.03043535002450345,0.2848056565019461,0.9474520567910659,-0.02347357757389545,-0.2872804403305054,-0.9575588703155518,22.97986602783203,-18.23596572875977,-35.98114013671875,-1,2,1757468.787300875,4,2,1676820287.871968,0,0,0,0,0,0,0,0,0,1757477.711265,0,0.06869507,99.08904,1676820299.263031,0,182416158,0,0,1,1676820299.235293,1,0.82,1
1676820299.864019,19,1676820299.282503,34.0482725305034,-117.8136050727483,217.2811,0.7437319,1.479233,28.25683698244017,80.68184873832814,6.654349716769406,13.9793426910568,-9999,1676820299.854569,23.95713806152344,-19.57396697998047,-34.94586181640625,263.9314575195312,252.4492034912109,12.46364784240723,1757480.77594825,0.0042572021484375,-0.3316497802734375,-1.088912963867188,1757480.74731725,0.5132837891578674,0.4370324611663818,0.0247010849416256,1757480.77163825,-119.0047760009766,60.81765747070312,-317.8386840820312,1757480.74109325,0.5879794276892117,-0.007921413999531926,0.3144264103067452,0.6101460456848145,0.4754088819026947,0.04604358598589897,-0.009709496051073074,-0.01194179058074951,0.03016775846481323,2,0.1509813289987847,0.04162433641211236,0.2856036335382057,0.9454643555463764,-0.007532979361712933,-0.3092710673809052,-0.9509441256523132,23.64340209960938,-18.76962661743164,-35.33004760742188,-1,2,1757468.787300875,4,2,1676820287.871968,0,0,0,0,0,0,0,0,0,1757477.711265,0,0.06869507,99.08904,1676820299.263031,0,182416158,0,0,1,1676820299.235293,1,0.82,1
1676820299.920585,20,1676820299.282503,34.0482725305034,-117.8136050727483,217.2811,0.7437319,1.479233,28.25683698244017,80.68184873832814,6.654349716769406,13.9793426910568,-9999,1676820299.914111,23.64672088623047,-18.72120666503906,-35.64779663085938,264.1915588378906,252.7093200683594,12.46376037597656,1757480.80955825,0.0246124267578125,-0.3444976806640625,-0.9669036865234375,1757480.78092725,-0.2584198415279388,-0.06069450452923775,-0.03115419112145901,1757480.80165925,-119.1114959716797,61.52027893066406,-317.9183044433594,1757480.80084425,0.5862150355830663,-0.001744347102828118,0.3144732722521835,-0.4005900323390961,-0.2298536449670792,-0.04738757014274597,0.03354962915182114,-0.04848781228065491,-0.0820009708404541,2,0.1501599155242592,0.04441849581408032,0.2852334405307144,0.9455797030700186,-0.001658802502788603,-0.3093156218528748,-0.9509580135345459,23.99538421630859,-19.09020233154297,-35.31512451171875,-1,2,1757468.787300875,4,2,1676820287.871968,0,0,0,0,0,0,0,0,0,1757477.711265,0,0.06869507,99.08904,1676820299.263031,0,182416158,0,0,1,1676820299.235293,1,0.82,1
1676820299.928672,21,1676820299.282503,34.0482725305034,-117.8136050727483,217.2811,0.7437319,1.479233,28.25683698244017,80.68184873832814,6.654349716769406,13.9793426910568,-9999,1676820299.914111,23.64672088623047,-18.72120666503906,-35.64779663085938,264.1915588378906,252.7093200683594,12.46376037597656,1757480.84316825,-0.027923583984375,-0.3004913330078125,-0.8557281494140625,1757480.81453725,-0.279815673828125,-0.2234520018100739,-0.05014039948582649,1757480.83168325,-119.2706298828125,61.70010375976562,-317.6355590820312,1757480.80084425,0.5862150355830663,-0.001744347102828118,0.3144732722521835,-0.4005900323390961,-0.2298536449670792,-0.04738757014274597,0.03354962915182114,-0.04848781228065491,-0.0820009708404541,2,0.1501599155242592,0.04441849581408032,0.2852334405307144,0.9455797030700186,-0.001658802502788603,-0.3093156218528748,-0.9509580135345459,23.99538421630859,-19.09020233154297,-35.31512451171875,-1,2,1757468.787300875,4,2,1676820287.871968,0,0,0,0,0,0,0,0,0,1757478.26231,0,0.06341553,99.08913,1676820299.263031,0,182416158,0,0,1,1676820299.235293,1,0.82,1
1676820299.969826,22,1676820299.282503,34.0482725305034,-117.8136050727483,217.2811,0.7437319,1.479233,28.25683698244017,80.68184873832814,6.654349716769406,13.9793426910568,-9999,1676820299.954081,23.84075164794922,-18.84370040893555,-35.52752685546875,264.2962341308594,252.8139953613281,12.46382522583008,1757480.87677825,-0.0050048828125,-0.3080291748046875,-0.9438018798828125,1757480.84814825,0.09949569404125214,0.083917535841465,-0.03400510549545288,1757480.86170825,-119.2684326171875,61.60708618164062,-317.96435546875,1757480.86059625,0.5826516546939507,-0.005840158116242269,0.3083226218938329,0.1664587110280991,0.08493564277887344,-0.02574639767408371,-0.01826954260468483,0.00184023380279541,0.06531548500061035,2,0.147909486325743,0.04133935373558396,0.2833854615212134,0.9466290764651994,-0.005564727820456028,-0.3034607768058777,-0.9528276920318604,23.84075164794922,-18.84370040893555,-35.52752685546875,-1,2,1757468.787300875,4,2,1676820287.871968,0,0,0,0,0,0,0,0,0,1757478.26231,0,0.06341553,99.08913,1676820299.263031,0,182416158,0,0,1,1676820299.235293,1,0.82,1
1676820299.998347,23,1676820299.282503,34.0482725305034,-117.8136050727483,217.2811,0.7437319,1.479233,28.25683698244017,80.68184873832814,6.654349716769406,13.9793426910568,-9999,1676820299.993754,23.85035705566406,-19.01985931396484,-35.37155151367188,264.342529296875,252.8602752685547,12.46389484405518,1757480.91038825,-0.0022735595703125,-0.3347625732421875,-0.9710693359375,1757480.88175825,0.1717848032712936,0.02910115942358971,-0.01334856264293194,1757480.89173225,-119.00390625,61.50466918945312,-318.1904296875,1757480.86059625,0.5826516546939507,-0.005840158116242269,0.3083226218938329,0.1664587110280991,0.08493564277887344,-0.02574639767408371,-0.01826954260468483,0.00184023380279541,0.06531548500061035,2,0.147909486325743,0.04133935373558396,0.2833854615212134,0.9466290764651994,-0.005564727820456028,-0.3034607768058777,-0.9528276920318604,23.84075164794922,-18.84370040893555,-35.52752685546875,-1,2,1757468.787300875,4,2,1676820287.871968,0,0,0,0,0,0,0,0,0,1757478.26231,0,0.06341553,99.08913,1676820299.263031,0,182416158,0,0,1,1676820299.235293,1,0.82,1
1676820300.034836,24,1676820299.282503,34.0482725305034,-117.8136050727483,217.2811,0.7437319,1.479233,28.25683698244017,80.68184873832814,6.654349716769406,13.9793426910568,-9999,1676820300.013941,23.88232421875,-19.21559906005859,-35.46966552734375,264.3363342285156,252.8540802001953,12.46395206451416,1757480.94399825,-0.0172119140625,-0.3419952392578125,-0.916656494140625,1757480.91536725,-0.07045019418001175,-0.1497530043125153,0.03623976185917854,1757480.92175825,-119.1346740722656,61.27900695800781,-317.96435546875,1757480.92034725,0.5822404723930797,-0.008547846725982279,0.31355380807933,-0.1200655698776245,-0.1603101491928101,0.04226424172520638,0.002851400524377823,-0.02851879596710205,-0.01041543483734131,2,0.1507760374743754,0.04077057533586986,0.2828634894252072,0.9463576044609558,-0.008130984380841255,-0.3084411025047302,-0.9512087106704712,23.88232421875,-19.21559906005859,-35.46966552734375,-1,2,1757468.787300875,4,2,1676820287.871968,0,0,0,0,0,0,0,0,0,1757478.26231,0,0.06341553,99.08913,1676820299.263031,0,182416158,0,0,1,1676820299.235293,1,0.82,1
1676820300.063465,25,1676820299.282503,34.0482725305034,-117.8136050727483,217.2811,0.7437319,1.479233,28.25683698244017,80.68184873832814,6.654349716769406,13.9793426910568,-9999,1676820300.053501,23.43897247314453,-18.80461883544922,-36.04269409179688,264.1582946777344,252.6760559082031,12.46376991271973,1757480.97760925,0.01971435546875,-0.3079376220703125,-0.9197998046875,1757480.94897725,-0.2863787710666656,-0.06340213865041733,0.1186598017811775,1757480.95178125,-119.5623321533203,61.43287658691406,-318.5565185546875,1757480.92034725,0.5822404723930797,-0.008547846725982279,0.31355380807933,-0.1200655698776245,-0.1603101491928101,0.04226424172520638,0.002851400524377823,-0.02851879596710205,-0.01041543483734131,2,0.1507760374743754,0.04077057533586986,0.2828634894252072,0.9463576044609558,-0.008130984380841255,-0.3084411025047302,-0.9512087106704712,23.88232421875,-19.21559906005859,-35.46966552734375,-1,2,1757468.787300875,4,2,1676820287.871968,0,0,0,0,0,0,0,0,0,1757478.26231,0,0.06341553,99.08913,1676820299.263031,0,182416158,0,0,1,1676820299.235293,1,0.82,1
1676820300.097915,26,1676820299.282503,34.0482725305034,-117.8136050727483,217.2811,0.7437319,1.479233,28.25683698244017,80.68184873832814,6.654349716769406,13.9793426910568,-9999,1676820300.093341,23.14918518066406,-18.52455902099609,-35.96746826171875,264.0002136230469,252.5179595947266,12.46319484710693,1757481.01121925,0.018096923828125,-0.3077239990234375,-0.90875244140625,1757480.98258825,-0.3338647782802582,-0.04854116961359978,0.09538484364748001,1757481.01183225,-119.5890655517578,61.84579467773438,-318.5985107421875,1757480.98009825,0.5880374811004153,-0.01502186515147537,0.2969498480272494,-0.3419036567211151,-0.05281870812177658,0.1027920097112656,0.03175884485244751,-0.01762157678604126,0.03739386796951294,2,0.1437305848409835,0.035759562007041,0.2855408934080791,0.9468523375269841,-0.01436386909335852,-0.292604923248291,-0.9561255574226379,23.13323974609375,-18.55961227416992,-35.740234375,-1,2,1757468.787300875,4,2,1676820287.871968,0,0,0,0,0,0,0,0,0,1757478.26231,0,0.06341553,99.08913,1676820299.263031,0,182416158,0,0,1,1676820299.235293,1,0.82,1
1676820300.134517,27,1676820299.282503,34.0482725305034,-117.8136050727483,217.2811,0.7437319,1.479233,28.25683698244017,80.68184873832814,6.654349716769406,13.9793426910568,-9999,1676820300.133149,23.22256469726562,-18.13520812988281,-36.02694702148438,264.0832214355469,252.6009826660156,12.46216487884521,1757481.04482925,0.076263427734375,-0.3043365478515625,-0.9526519775390625,1757481.01619825,-0.1332717686891556,-0.08708377182483673,0.03917110338807106,1757481.04185625,-119.9586944580078,62.43730163574219,-318.6031494140625,1757481.03984925,0.5892515708644581,-0.02166277094913293,0.2863574939534928,-0.08740071207284927,-0.2933687269687653,-0.0756383091211319,0.08013566583395004,-0.02192246913909912,0.0008936524391174316,2,0.1396466258777656,0.0311737317917665,0.2859146262076511,0.9475125994637851,-0.02077901922166348,-0.2824599146842957,-0.9590540528297424,23.22256469726562,-18.13520812988281,-36.02694702148438,-1,2,1757468.787300875,4,2,1676820287.871968,0,0,0,0,0,0,0,0,0,1757478.26231,0,0.06341553,99.08913,1676820299.263031,0,182416158,0,0,1,1676820299.235293,1,0.82,1
1676820300.169395,28,1676820299.282503,34.0482725305034,-117.8136050727483,217.2811,0.7437319,1.479233,28.25683698244017,80.68184873832814,6.654349716769406,13.9793426910568,-9999,1676820300.153198,23.18184661865234,-18.4268798828125,-36.49005126953125,264.3658447265625,252.8836059570312,12.46217823028564,1757481.07843825,0.089599609375,-0.3179931640625,-0.948944091796875,1757481.04980825,-0.08790934830904007,-0.4009958803653717,-0.1433987021446228,1757481.07188025,-120.3548736572266,62.49618530273438,-318.8929443359375,1757481.03984925,0.5892515708644581,-0.02166277094913293,0.2863574939534928,-0.08740071207284927,-0.2933687269687653,-0.0756383091211319,0.08013566583395004,-0.02192246913909912,0.0008936524391174316,2,0.1396466258777656,0.0311737317917665,0.2859146262076511,0.9475125994637851,-0.02077901922166348,-0.2824599146842957,-0.9590540528297424,23.22256469726562,-18.13520812988281,-36.02694702148438,-1,2,1757468.787300875,4,2,1676820287.871968,0,0,0,0,0,0,0,0,0,1757478.26231,0,0.06341553,99.08913,1676820299.263031,0,182416158,0,0,1,1676820299.235293,1,0.82,1
1676820300.197615,29,1676820299.282503,34.0482725305034,-117.8136050727483,217.2811,0.7437319,1.479233,28.25683698244017,80.68184873832814,6.654349716769406,13.9793426910568,-9999,1676820300.192946,22.03629302978516,-17.36438751220703,-36.90377807617188,265.5242614746094,254.0420074462891,12.46221351623535,1757481.11204925,0.1103973388671875,-0.3293304443359375,-0.9645538330078125,1757481.08341825,-0.3470325171947479,-0.8324447870254517,-0.364290326833725,1757481.10190425,-121.2255401611328,63.30307006835938,-319.3439636230469,1757481.09960125,0.5713211635315888,-0.0566447724368428,0.2722082594415265,-0.5618958473205566,-1.061992526054382,-0.4794112145900726,0.1523997485637665,-0.05201807618141174,0.01598656177520752,2,0.1380397221550146,0.01129958839841417,0.2753866927170308,0.9513041758506559,-0.05452991276979446,-0.2688590288162231,-0.9616346955299377,22.46824645996094,-17.77882766723633,-36.94140625,-1,2,1757468.787300875,4,2,1676820287.871968,0,0,0,0,0,0,0,0,0,1757478.26231,0,0.06341553,99.08913,1676820299.263031,0,182416158,0,0,1,1676820299.235293,1,0.82,1
1676820300.234623,30,1676820299.282503,34.0482725305034,-117.8136050727483,217.2811,0.7437319,1.479233,28.25683698244017,80.68184873832814,6.654349716769406,13.9793426910568,-9999,1676820300.233133,20.02143096923828,-15.94485473632812,-38.3475341796875,267.2127075195312,255.73046875,12.46227550506592,1757481.14565925,-0.0105438232421875,-0.3350677490234375,-1.0006103515625,1757481.11702825,-0.7414695620536804,-1.252196788787842,-0.5778361558914185,1757481.13193025,-122.6232147216797,64.32029724121094,-320.3960571289062,1757481.09960125,0.5713211635315888,-0.0566447724368428,0.2722082594415265,-0.5618958473205566,-1.061992526054382,-0.4794112145900726,0.1523997485637665,-0.05201807618141174,0.01598656177520752,2,0.1380397221550146,0.01129958839841417,0.2753866927170308,0.9513041758506559,-0.05452991276979446,-0.2688590288162231,-0.9616346955299377,22.46824645996094,-17.77882766723633,-36.94140625,-1,2,1757468.787300875,4,2,1676820287.871968,0,0,0,0,0,0,0,0,0,1757478.26231,0,0.06341553,99.08913,1676820299.263031,0,182416158,0,0,1,1676820299.235293,1,0.82,1
1676820300.267675,31,1676820299.282503,34.0482725305034,-117.8136050727483,217.2811,0.7437319,1.479233,28.25683698244017,80.68184873832814,6.654349716769406,13.9793426910568,-9999,1676820300.252692,19.32811737060547,-15.23457336425781,-39.078857421875,267.7039184570312,256.2216796875,12.46231174468994,1757481.17926925,-0.0758514404296875,-0.3403778076171875,-0.932220458984375,1757481.15063825,-0.92417973279953,-1.282808780670166,-0.317360907793045,1757481.16195525,-123.9606170654297,65.3609619140625,-321.5851135253906,1757481.15935225,0.5376296142711208,-0.124174138242553,0.2266521634386416,-0.9421700835227966,-1.262551426887512,-0.138885036110878,0.06514552235603333,-0.1066891252994537,0.008272707462310791,2,0.1251856909275217,-0.02945923073046681,0.25661236635254,0.9579201110083349,-0.1206875741481781,-0.2247165739536285,-0.9669213891029358,19.82771301269531,-15.46823883056641,-38.95050048828125,-1,2,1757468.787300875,4,2,1676820287.871968,0,0,0,0,0,0,0,0,0,1757478.26231,0,0.06341553,99.08913,1676820299.263031,0,182416158,0,0,1,1676820299.235293,1,0.82,1
1676820300.302202,32,1676820299.282503,34.0482725305034,-117.8136050727483,217.2811,0.7437319,1.479233,28.25683698244017,80.68184873832814,6.654349716769406,13.9793426910568,-9999,1676820300.29239,17.44834899902344,-13.94711303710938,-40.297119140625,267.4947509765625,256.0125122070312,12.46236896514893,1757481.212879875,-0.0192718505859375,-0.2230682373046875,-1.0140380859375,1757481.18424825,-0.8201255202293396,-1.02613091468811,0.2721894383430481,1757481.19197825,-125.6537017822266,66.57431030273438,-322.9163208007812,1757481.15935225,0.5376296142711208,-0.124174138242553,0.2266521634386416,-0.9421700835227966,-1.262551426887512,-0.138885036110878,0.06514552235603333,-0.1066891252994537,0.008272707462310791,2,0.1251856909275217,-0.02945923073046681,0.25661236635254,0.9579201110083349,-0.1206875741481781,-0.2247165739536285,-0.9669213891029358,19.82771301269531,-15.46823883056641,-38.95050048828125,-1,2,1757468.787300875,4,2,1676820287.871968,0,0,0,0,0,0,0,0,0,1757478.26231,0,0.06341553,99.08913,1676820299.263031,0,182416158,0,0,1,1676820299.235293,1,0.82,1
1676820300.332061,33,1676820299.282503,34.0482725305034,-117.8136050727483,217.2811,0.7437319,1.479233,28.25683698244017,80.68184873832814,6.654349716769406,13.9793426910568,-9999,1676820300.312478,16.49770355224609,-13.731201171875,-40.987548828125,267.0331726074219,255.5509338378906,12.46239471435547,1757481.246489875,-0.05462646484375,-0.11578369140625,-0.8916778564453125,1757481.217858875,-0.3659761250019073,-0.8451749086380005,0.5465427041053772,1757481.222001875,-126.7675018310547,66.88414001464844,-323.5147705078125,1757481.219103875,0.5484559497964323,-0.186890294599472,0.1809119185422909,-0.35691237449646,-0.8477873206138611,0.5559756755828857,0.1567250937223434,-0.04010510444641113,-0.05200368165969849,2,0.1117431352727532,-0.06509974119815819,0.2604061315089228,0.9567989442076739,-0.1827719211578369,-0.1799266785383224,-0.9665510058403015,16.93813323974609,-14.0146484375,-40.80642700195312,-1,2,1757468.787300875,4,2,1676820287.871968,0,0,0,0,0,0,0,0,0,1757478.26231,0,0.06341553,99.08913,1676820299.263031,0,182416158,0,0,1,1676820299.235293,1,0.82,1
1676820300.370224,34,1676820299.282503,34.0482725305034,-117.8136050727483,217.2811,0.7437319,1.479233,28.25683698244017,80.68184873832814,6.654349716769406,13.9793426910568,-9999,1676820300.352415,15.74118041992188,-14.54996490478516,-41.39804077148438,265.1596984863281,253.6774597167969,12.46242427825928,1757481.280099875,0.034912109375,0.004150390625,-0.91351318359375,1757481.251469875,0.2770483791828156,0.01040230691432953,0.9078372716903687,1757481.252027875,-127.7348937988281,65.96762084960938,-323.4264526367188,1757481.219103875,0.5484559497964323,-0.186890294599472,0.1809119185422909,-0.35691237449646,-0.8477873206138611,0.5559756755828857,0.1567250937223434,-0.04010510444641113,-0.05200368165969849,2,0.1117431352727532,-0.06509974119815819,0.2604061315089228,0.9567989442076739,-0.1827719211578369,-0.1799266785383224,-0.9665510058403015,16.93813323974609,-14.0146484375,-40.80642700195312,-1,2,1757468.787300875,4,2,1676820287.871968,0,0,0,0,0,0,0,0,0,1757478.26231,0,0.06341553,99.08913,1676820299.263031,0,182416158,0,0,1,1676820299.235293,1,0.82,1
1676820300.405588,35,1676820300.232712,34.04828651433091,-117.813592254774,217.3133,1.199729,1.35814,28.992336509812,46.28158077843599,6.595669402256187,13.02062158569125,-9999,1676820300.39688,15.90174102783203,-16.97004318237305,-40.03579711914062,262.4461059570312,250.9638519287109,12.46229267120361,1757481.313709875,-0.08404541015625,-0.2972259521484375,-0.911956787109375,1757481.285079875,1.326447010040283,0.4955341219902039,0.9630560278892517,1757481.312079875,-127.3830718994141,62.30140686035156,-322.1171264648438,1757481.278854875,0.6005340875487537,-0.2019712418262186,0.1865373757549759,1.136959075927734,0.5497830510139465,0.8789690136909485,0.2455217391252518,0.2149373888969421,0.06491190195083618,2,0.1182019446034872,-0.06847857060009037,0.2840203399618837,0.9490371434610093,-0.1971209198236465,-0.1854574531316757,-0.9626779556274414,15.5341796875,-14.90483856201172,-41.3074951171875,-1,2,1757468.787300875,4,2,1676820287.871968,0,0,0,0,0,0,0,0,0,1757478.26231,0,0.06341553,99.08913,1676820299.263031,0,182416158,0,0,1,1676820299.235293,1,0.82,1
1676820300.436546,36,1676820300.232712,34.04828651433091,-117.813592254774,217.3133,1.199729,1.35814,28.992336509812,46.28158077843599,6.595669402256187,13.02062158569125,-9999,1676820300.431815,15.54212188720703,-20.14261245727539,-39.65182495117188,258.6393127441406,247.1570739746094,12.46199417114258,1757481.347319875,-0.1280517578125,-0.4935302734375,-0.8412933349609375,1757481.318689875,1.689374089241028,-0.08744249492883682,1.585813641548157,1757481.342106875,-127.5620269775391,60.13291931152344,-322.1130981445312,1757481.338606875,0.7017555241188984,-0.2202669759740837,0.2592300497831208,1.164716482162476,-0.4830783307552338,1.504461646080017,0.1373067498207092,-0.2205618619918823,0.09196150302886963,2,0.1581037917353281,-0.05819070934117375,0.3254332790730098,0.9304355925512268,-0.2111898809671402,-0.2563363909721375,-0.9432340860366821,15.57774353027344,-19.57191467285156,-39.63650512695312,-1,2,1757468.787300875,4,2,1676820287.871968,0,0,0,0,0,0,0,0,0,1757478.26231,0,0.06341553,99.08913,1676820299.263031,0,182416158,0,0,1,1676820299.235293,1,0.82,1
1676820300.46737,37,1676820300.232712,34.04828651433091,-117.813592254774,217.3133,1.199729,1.35814,28.992336509812,46.28158077843599,6.595669402256187,13.02062158569125,-9999,1676820300.451923,15.18438720703125,-20.99303436279297,-39.27633666992188,257.111572265625,245.6293334960938,12.4616584777832,1757481.380930875,-0.12542724609375,-0.40924072265625,-0.92724609375,1757481.352298875,0.4057981073856354,0.07134635001420975,1.305652856826782,1757481.372133875,-127.8355255126953,59.23931884765625,-321.2301330566406,1757481.338606875,0.7017555241188984,-0.2202669759740837,0.2592300497831208,1.164716482162476,-0.4830783307552338,1.504461646080017,0.1373067498207092,-0.2205618619918823,0.09196150302886963,2,0.1581037917353281,-0.05819070934117375,0.3254332790730098,0.9304355925512268,-0.2111898809671402,-0.2563363909721375,-0.9432340860366821,15.57774353027344,-19.57191467285156,-39.63650512695312,-1,2,1757468.787300875,4,2,1676820287.871968,0,0,0,0,0,0,0,0,0,1757478.26231,0,0.06341553,99.08913,1676820299.263031,0,182416158,0,0,1,1676820299.235293,1,0.82,1
1676820300.501409,38,1676820300.232712,34.04828651433091,-117.813592254774,217.3133,1.199729,1.35814,28.992336509812,46.28158077843599,6.595669402256187,13.02062158569125,-9999,1676820300.491513,15.75608062744141,-21.02060317993164,-38.61868286132812,255.1089782714844,243.6267395019531,12.45979499816895,1757481.414540875,0.119720458984375,-0.4604644775390625,-0.4494171142578125,1757481.385909875,-0.5529689192771912,1.035292983055115,0.7378638982772827,1757481.402160875,-127.1923675537109,59.51318359375,-321.00830078125,1757481.398357875,0.7630802078860265,-0.2024970516385801,0.2412462743200626,-0.4869337379932404,1.668991327285767,0.5634410977363586,0.2535803616046906,-0.1623627096414566,0.533673882484436,2,0.1484682490789191,-0.048550131517839,0.3564637163638374,0.9211589595979351,-0.1952918618917465,-0.2389129996299744,-0.9512001276016235,15.40033721923828,-21.09904098510742,-38.783447265625,-1,2,1757468.787300875,4,2,1676820287.871968,0,0,0,0,0,0,0,0,0,1757478.26231,0,0.06341553,99.08913,1676820299.263031,0,182416158,0,0,1,1676820299.235293,1,0.82,1
1676820300.536234,39,1676820300.232712,34.04828651433091,-117.813592254774,217.3133,1.199729,1.35814,28.992336509812,46.28158077843599,6.595669402256187,13.02062158569125,-9999,1676820300.531319,20.13331604003906,-21.08778762817383,-36.50790405273438,253.1465148925781,241.6642761230469,12.46005725860596,1757481.448150875,0.1460418701171875,-0.3474884033203125,-0.4626312255859375,1757481.419519875,-0.307012140750885,3.068958520889282,0.5569311380386353,1757481.432185875,-123.8980255126953,59.70584106445312,-319.3872680664062,1757481.398357875,0.7630802078860265,-0.2024970516385801,0.2412462743200626,-0.4869337379932404,1.668991327285767,0.5634410977363586,0.2535803616046906,-0.1623627096414566,0.533673882484436,2,0.1484682490789191,-0.048550131517839,0.3564637163638374,0.9211589595979351,-0.1952918618917465,-0.2389129996299744,-0.9512001276016235,15.40033721923828,-21.09904098510742,-38.783447265625,-1,2,1757468.787300875,4,2,1676820287.871968,0,0,0,0,0,0,0,0,0,1757478.26231,0,0.06341553,99.08913,1676820299.263031,0,182416158,0,0,1,1676820299.235293,1,0.82,1
1676820300.571079,40,1676820300.232712,34.04828651433091,-117.813592254774,217.3133,1.199729,1.35814,28.992336509812,46.28158077843599,6.595669402256187,13.02062158569125,-9999,1676820300.551364,23.02183532714844,-21.34703826904297,-34.80984497070312,252.3309783935547,240.8487396240234,12.46027565002441,1757481.481760875,-0.064788818359375,-0.40380859375,-0.3245697021484375,1757481.453129875,0.4762980937957764,4.133687019348145,0.2475240379571915,1757481.462209875,-119.4599914550781,59.02523803710938,-316.9599914550781,1757481.458108875,0.7883888580551182,-0.00700218082345249,0.2327243809173152,0.6842560768127441,3.799551248550415,0.1917987614870071,0.1178667768836021,-0.1148144602775574,0.4783279299736023,2,0.1085305284836458,0.04137880255538669,0.3810896328902401,0.9172131094288738,-0.006813358049839735,-0.2306293100118637,-0.9730178117752075,21.49318695068359,-21.01951599121094,-35.57656860351562,-1,2,1757468.787300875,4,2,1676820287.871968,0,0,0,0,0,0,0,0,0,1757478.26231,0,0.06341553,99.08913,1676820299.263031,0,182416158,0,0,1,1676820299.235293,1,0.82,1
1676820300.604486,41,1676820300.232712,34.04828651433091,-117.813592254774,217.3133,1.199729,1.35814,28.992336509812,46.28158077843599,6.595669402256187,13.02062158569125,-9999,1676820300.591354,27.85518646240234,-23.43464279174805,-30.08511352539062,251.0556945800781,239.5734558105469,12.4607629776001,1757481.515370875,0.43017578125,-0.2906646728515625,-0.022552490234375,1757481.486739875,1.844866991043091,3.558110237121582,0.1569424718618393,1757481.492233875,-115.6171264648438,57.47346496582031,-313.5108032226562,1757481.458108875,0.7883888580551182,-0.00700218082345249,0.2327243809173152,0.6842560768127441,3.799551248550415,0.1917987614870071,0.1178667768836021,-0.1148144602775574,0.4783279299736023,2,0.1085305284836458,0.04137880255538669,0.3810896328902401,0.9172131094288738,-0.006813358049839735,-0.2306293100118637,-0.9730178117752075,21.49318695068359,-21.01951599121094,-35.57656860351562,-1,2,1757468.787300875,4,2,1676820287.871968,0,0,0,0,0,0,0,0,0,1757478.26231,0,0.06341553,99.08913,1676820299.263031,0,182416158,0,0,1,1676820299.235293,1,0.82,1
1676820300.635764,42,1676820300.232712,34.04828651433091,-117.813592254774,217.3133,1.199729,1.35814,28.992336509812,46.28158077843599,6.595669402256187,13.02062158569125,-9999,1676820300.633444,33.542724609375,-26.44776153564453,-19.91305541992188,249.0207977294922,237.5385589599609,12.46178913116455,1757481.548980875,0.6408538818359375,-0.173736572265625,-0.0287628173828125,1757481.520350875,2.923684358596802,5.80866527557373,0.2850863337516785,1757481.522257875,-111.6878356933594,55.16989135742188,-307.4521179199219,1757481.517860875,0.7855020988285725,0.2302366168592436,0.3441166654420437,2.855212926864624,5.599679946899414,0.2995789349079132,0.2002253830432892,0.04036810994148254,0.8891285061836243,2,0.1138146642469716,0.1696454856585931,0.3927529687077158,0.8966670773613152,0.2148289531469345,-0.3373652696609497,-0.9165332913398743,29.15544891357422,-24.03644561767578,-28.02658081054688,-1,2,1757468.787300875,4,2,1676820287.871968,0,0,0,0,0,0,0,0,0,1757478.26231,0,0.06341553,99.08913,1676820299.263031,0,182416158,0,0,1,1676820299.235293,1,0.82,1
1676820300.670574,43,1676820300.232712,34.04828651433091,-117.813592254774,217.3133,1.199729,1.35814,28.992336509812,46.28158077843599,6.595669402256187,13.02062158569125,-9999,1676820300.651125,36.59366607666016,-27.46759033203125,-13.3387451171875,248.4211730957031,236.9389343261719,12.46253108978271,1757481.582590875,0.9315032958984375,-0.100738525390625,0.0211029052734375,1757481.553960875,3.814387559890747,7.636778831481934,-0.4312262237071991,1757481.582305875,-104.1837005615234,53.40081787109375,-286.5960083007812,1757481.577611875,0.6567556190936356,0.7169914583178609,0.5268823423717909,4.74891471862793,7.908886909484863,-1.123919367790222,0.3282853960990906,0.4005612134933472,0.6652593612670898,2,0.121566738040639,0.3993032358479698,0.3780704493022456,0.826342169532098,0.5680006146430969,-0.5028409361839294,-0.6515569090843201,37.83647918701172,-27.76351165771484,-9.777679443359375,-1,2,1757468.787300875,4,2,1676820287.871968,0,0,0,0,0,0,0,0,0,1757478.26231,0,0.06341553,99.08913,1676820299.263031,0,182416158,0,0,1,1676820299.235293,1,0.82,1
1676820300.705628,44,1676820300.232712,34.04828651433091,-117.813592254774,217.3133,1.199729,1.35814,28.992336509812,46.28158077843599,6.595669402256187,13.02062158569125,-9999,1676820300.690613,39.43178558349609,-26.27320098876953,2.6610107421875,250.2040710449219,238.7218322753906,12.46425724029541,1757481.616200875,1.108047485351562,0.040130615234375,0.1049652099609375,1757481.587569875,5.182549476623535,7.779782772064209,-1.473704695701599,1757481.612328875,-103.1853332519531,55.66496276855469,-274.2078247070312,1757481.577611875,0.6567556190936356,0.7169914583178609,0.5268823423717909,4.74891471862793,7.908886909484863,-1.123919367790222,0.3282853960990906,0.4005612134933472,0.6652593612670898,2,0.121566738040639,0.3993032358479698,0.3780704493022456,0.826342169532098,0.5680006146430969,-0.5028409361839294,-0.6515569090843201,37.83647918701172,-27.76351165771484,-9.777679443359375,-1,2,1757468.787300875,4,2,1676820287.871968,0,0,0,0,0,0,0,0,0,1757478.26231,0,0.06341553,99.08913,1676820299.263031,0,182416158,0,0,1,1676820299.235293,1,0.82,1
1676820300.735409,45,1676820300.232712,34.04828651433091,-117.813592254774,217.3133,1.199729,1.35814,28.992336509812,46.28158077843599,6.595669402256187,13.02062158569125,-9999,1676820300.730467,39.82981109619141,-18.22308731079102,18.39764404296875,260.7822875976562,249.300048828125,12.46627998352051,1757481.649811875,1.49615478515625,0.20849609375,-0.1423492431640625,1757481.621179875,6.270255565643311,7.212156772613525,-3.6506028175354,1757481.642350875,-103.3726654052734,63.37034606933594,-262.6461791992188,1757481.637362875,0.2186663848358555,1.394935484870404,0.5437433535100673,6.064066410064697,7.031235694885254,-5.235275268554688,0.4863090515136719,0.6855710744857788,0.1778301447629929,2,0.1370867986677663,0.6374523724880858,0.2520063430033278,0.715090760717416,0.8425791263580322,-0.5173431038856506,-0.1497233659029007,40.11257171630859,-20.96504211425781,14.85009765625,-1,2,1757468.787300875,4,2,1676820287.871968,0,0,0,0,0,0,0,0,0,1757478.26231,0,0.06341553,99.08913,1676820299.263031,0,182416158,0,0,1,1676820299.235293,1,0.82,1
1676820300.772136,46,1676820300.232712,34.04828651433091,-117.813592254774,217.3133,1.199729,1.35814,28.992336509812,46.28158077843599,6.595669402256187,13.02062158569125,-9999,1676820300.770364,35.85208892822266,-4.274696350097656,28.7142333984375,281.408203125,269.9259643554688,12.46824264526367,1757481.683421875,1.7900390625,0.12939453125,-0.3681488037109375,1757481.654790875,5.409958362579346,6.560018062591553,-6.50169563293457,1757481.672372875,-106.4198150634766,74.00135803222656,-255.0994415283203,1757481.637362875,0.2186663848358555,1.394935484870404,0.5437433535100673,6.064066410064697,7.031235694885254,-5.235275268554688,0.4863090515136719,0.6855710744857788,0.1778301447629929,2,0.1370867986677663,0.6374523724880858,0.2520063430033278,0.715090760717416,0.8425791263580322,-0.5173431038856506,-0.1497233659029007,40.11257171630859,-20.96504211425781,14.85009765625,-1,2,1757468.787300875,4,2,1676820287.871968,0,0,0,0,0,0,0,0,0,1757478.26231,0,0.06341553,99.08913,1676820299.263031,0,182416158,0,0,1,1676820299.235293,1,0.82,1
1676820300.805209,47,1676820300.232712,34.04828651433091,-117.813592254774,217.3133,1.199729,1.35814,28.992336509812,46.28158077843599,6.595669402256187,13.02062158569125,-9999,1676820300.790523,32.86441040039062,1.795120239257812,31.08088684082031,292.8262023925781,281.3439636230469,12.46889305114746,1757481.717031875,1.702285766601562,0.064788818359375,-0.6429595947265625,1757481.688400875,3.658570051193237,3.891073703765869,-6.681919097900391,1757481.702396875,-110.7615966796875,83.47917175292969,-250.9737701416016,1757481.697114875,-0.05298576832320035,1.832019348515668,0.1424447451760423,3.080204248428345,3.023167848587036,-6.498523712158203,0.7955254316329956,0.2512011229991913,-0.7267158031463623,2,0.0642796884814545,0.7897413673519966,0.04033333071408816,0.6087282262604753,0.9562904834747314,-0.1419635266065598,0.2556466162204742,34.21176147460938,-1.174613952636719,30.07417297363281,-1,2,1757468.787300875,4,2,1676820287.871968,0,0,0,0,0,0,0,0,0,1757478.26231,0,0.06341553,99.08913,1676820299.263031,0,182416158,0,0,1,1676820299.235293,1,0.82,1
1676820300.841926,48,1676820300.232712,34.04828651433091,-117.813592254774,217.3133,1.199729,1.35814,28.992336509812,46.28158077843599,6.595669402256187,13.02062158569125,-9999,1676820300.830693,29.55854034423828,10.592529296875,30.91033935546875,309.8645324707031,298.3822937011719,12.46999645233154,1757481.750641875,2.263656616210938,0.4381256103515625,-0.357086181640625,1757481.722010875,1.087033867835999,-0.1271960288286209,-6.138184547424316,1757481.732422875,-113.5376892089844,90.14836120605469,-251.2304229736328,1757481.697114875,-0.05298576832320035,1.832019348515668,0.1424447451760423,3.080204248428345,3.023167848587036,-6.498523712158203,0.7955254316329956,0.2512011229991913,-0.7267158031463623,2,0.0642796884814545,0.7897413673519966,0.04033333071408816,0.6087282262604753,0.9562904834747314,-0.1419635266065598,0.2556466162204742,34.21176147460938,-1.174613952636719,30.07417297363281,-1,2,1757468.787300875,4,2,1676820287.871968,0,0,0,0,0,0,0,0,0,1757478.26231,0,0.06341553,99.08913,1676820299.263031,0,182416158,0,0,1,1676820299.235293,1,0.82,1
1676820300.869843,49,1676820300.232712,34.04828651433091,-117.813592254774,217.3133,1.199729,1.35814,28.992336509812,46.28158077843599,6.595669402256187,13.02062158569125,-9999,1676820300.850231,28.2677001953125,13.59363555908203,30.560546875,314.9777221679688,303.4954833984375,12.47057819366455,1757481.784251875,2.28375244140625,0.3849029541015625,-0.0177001953125,1757481.755620875,-0.9517426490783691,-2.098363637924194,-6.112009048461914,1757481.762449875,-115.0984954833984,94.75643920898438,-251.9369506835938,1757481.756865875,0.007976676140461464,1.830603447773419,-0.2233079110853267,-0.9690729975700378,-2.090965509414673,-6.115211009979248,1.375412702560425,0.2321109026670456,-0.575527548789978,2,-0.07105901025530265,0.7875331180427081,-0.08591282116179257,0.6061034417229278,0.942443311214447,0.2214566022157669,0.2505155801773071,28.96199798583984,11.93411254882812,30.66696166992188,-1,2,1757468.787300875,4,2,1676820287.871968,0,0,0,0,0,0,0,0,0,1757478.26231,0,0.06341553,99.08913,1676820299.263031,0,182416158,0,0,1,1676820299.235293,1,0.82,1
1676820300.905313,50,1676820300.232712,34.04828651433091,-117.813592254774,217.3133,1.199729,1.35814,28.992336509812,46.28158077843599,6.595669402256187,13.02062158569125,-9999,1676820300.890209,24.74272155761719,18.87158203125,29.03944396972656,326.0238647460938,314.5416259765625,12.47131538391113,1757481.817861875,1.922454833984375,0.4853515625,0.0752410888671875,1757481.789231875,0.09941153973340988,-1.204735279083252,-5.643074035644531,1757481.792475875,-117.6669006347656,98.36111450195312,-253.1195526123047,1757481.756865875,0.007976676140461464,1.830603447773419,-0.2233079110853267,-0.9690729975700378,-2.090965509414673,-6.115211009979248,1.375412702560425,0.2321109026670456,-0.575527548789978,2,-0.07105901025530265,0.7875331180427081,-0.08591282116179257,0.6061034417229278,0.942443311214447,0.2214566022157669,0.2505155801773071,28.96199798583984,11.93411254882812,30.66696166992188,-1,2,1757468.787300875,4,2,1676820287.871968,0,0,0,0,0,0,0,0,0,1757478.26231,0,0.06341553,99.08913,1676820299.263031,0,182416158,0,0,1,1676820299.235293,1,0.82,1
1676820300.939527,51,1676820300.232712,34.04828651433091,-117.813592254774,217.3133,1.199729,1.35814,28.992336509812,46.28158077843599,6.595669402256187,13.02062158569125,-9999,1676820300.929964,21.59056091308594,24.57074737548828,25.72857666015625,338.1948547363281,326.7126159667969,12.47182559967041,1757481.851471875,1.969345092773438,0.299346923828125,-0.027923583984375,1757481.822841875,2.230677604675293,-1.158517122268677,-3.911186456680298,1757481.852527875,-122.3055572509766,107.3517303466797,-258.1800537109375,1757481.816616875,0.07861597061812001,1.764692829962736,-0.5459933882613182,1.886531949043274,-1.259284734725952,-4.277071952819824,1.143778800964355,-0.06902617216110229,-0.09574580192565918,2,-0.2003904771920877,0.7363278011854856,-0.1840040634959695,0.6195221861274349,0.8385974764823914,0.5192673206329346,0.1646699458360672,23.89671325683594,20.29434204101562,28.42115783691406,-1,2,1757468.787300875,4,2,1676820287.871968,0,0,0,0,0,0,0,0,0,1757479.262887,0,-0.0052948,99.08993,1676820299.263031,0,182416158,0,0,1,1676820299.235293,1,0.82,1
1676820300.974385,52,1676820300.232712,34.04828651433091,-117.813592254774,217.3133,1.199729,1.35814,28.992336509812,46.28158077843599,6.595669402256187,13.02062158569125,-9999,1676820300.969564,20.54511260986328,29.29541015625,20.4957275390625,346.0830078125,334.6007690429688,12.47252655029297,1757481.885081875,1.708450317382812,0.145111083984375,-0.123504638671875,1757481.856450875,3.152758836746216,-1.394160270690918,-2.405407190322876,1757481.882551875,-122.5195159912109,110.1936798095703,-262.4510498046875,1757481.876368875,-0.1079765172717816,1.570316456527042,-0.7292896518551208,2.860383272171021,-1.874460577964783,-1.141797661781311,1.039172649383545,-0.5554239153862,-0.1503073573112488,2,-0.2162200887320686,0.673104721453086,-0.2873954296456849,0.6462065896516078,0.7456480860710144,0.6663401126861572,-0.0003578143659979105,20.48138427734375,28.30079650878906,21.73141479492188,-1,2,1757468.787300875,4,2,1676820287.871968,0,0,0,0,0,0,0,0,0,1757479.262887,0,-0.0052948,99.08993,1676820299.263031,0,182416158,0,0,1,1676820299.235293,1,0.82,1
1676820301.004441,53,1676820300.232712,34.04828651433091,-117.813592254774,217.3133,1.199729,1.35814,28.992336509812,46.28158077843599,6.595669402256187,13.02062158569125,-9999,1676820300.989539,21.13287353515625,30.15681457519531,18.41845703125,346.7749328613281,335.2926940917969,12.47283935546875,1757481.918692875,1.449111938476562,0.33770751953125,-0.0527496337890625,1757481.890060875,2.422087669372559,-2.137119293212891,-0.349897563457489,1757481.912578875,-121.5189056396484,111.2172698974609,-265.7250366210938,1757481.876368875,-0.1079765172717816,1.570316456527042,-0.7292896518551208,2.860383272171021,-1.874460577964783,-1.141797661781311,1.039172649383545,-0.5554239153862,-0.1503073573112488,2,-0.2162200887320686,0.673104721453086,-0.2873954296456849,0.6462065896516078,0.7456480860710144,0.6663401126861572,-0.0003578143659979105,20.48138427734375,28.30079650878906,21.73141479492188,-1,2,1757468.787300875,4,2,1676820287.871968,0,0,0,0,0,0,0,0,0,1757479.262887,0,-0.0052948,99.08993,1676820299.263031,0,182416158,0,0,1,1676820299.235293,1,0.82,1
1676820301.040663,54,1676820300.232712,34.04828651433091,-117.813592254774,217.3133,1.199729,1.35814,28.992336509812,46.28158077843599,6.595669402256187,13.02062158569125,-9999,1676820301.029475,23.07587432861328,31.01732635498047,15.00326538085938,344.1764221191406,332.6941833496094,12.47342395782471,1757481.952302875,1.298736572265625,0.4992828369140625,0.124542236328125,1757481.923671875,0.8692022562026978,-2.25731372833252,0.5160257816314697,1757481.942605875,-119.7104339599609,111.606689453125,-267.6641235351562,1757481.936119875,-0.2376947067423653,1.351431126058806,-0.7173478313085125,0.4723109006881714,-2.574668169021606,0.6142591834068298,0.6545056700706482,-0.3143250346183777,0.09263052046298981,2,-0.2025250210891983,0.6139978418144784,-0.3046330775699574,0.6994205796593507,0.7354938387870789,0.65738844871521,-0.1639805287122726,22.31256866455078,30.7991943359375,15.53671264648438,-1,2,1757468.787300875,4,2,1676820287.871968,0,0,0,0,0,0,0,0,0,1757479.262887,0,-0.0052948,99.08993,1676820299.263031,0,182416158,0,0,1,1676820299.235293,1,0.82,1
1676820301.07381,55,1676820300.232712,34.04828651433091,-117.813592254774,217.3133,1.199729,1.35814,28.992336509812,46.28158077843599,6.595669402256187,13.02062158569125,-9999,1676820301.069147,24.16851806640625,30.51555633544922,12.31985473632812,341.4466247558594,329.9643859863281,12.47397232055664,1757481.985912875,0.892333984375,0.6074981689453125,0.4437255859375,1757481.957281875,0.2414014339447021,-2.325502634048462,0.5396562814712524,1757481.972631875,-118.9540252685547,110.8842163085938,-270.063720703125,1757481.936119875,-0.2376947067423653,1.351431126058806,-0.7173478313085125,0.4723109006881714,-2.574668169021606,0.6142591834068298,0.6545056700706482,-0.3143250346183777,0.09263052046298981,2,-0.2025250210891983,0.6139978418144784,-0.3046330775699574,0.6994205796593507,0.7354938387870789,0.65738844871521,-0.1639805287122726,22.31256866455078,30.7991943359375,15.53671264648438,-1,2,1757468.787300875,4,2,1676820287.871968,0,0,0,0,0,0,0,0,0,1757479.262887,0,-0.0052948,99.08993,1676820299.263031,0,182416158,0,0,1,1676820299.235293,1,0.82,1
1676820301.108784,56,1676820300.232712,34.04828651433091,-117.813592254774,217.3133,1.199729,1.35814,28.992336509812,46.28158077843599,6.595669402256187,13.02062158569125,-9999,1676820301.089033,24.29339599609375,30.78163909912109,11.60134887695312,342.5993347167969,331.1170959472656,12.47423934936523,1757482.019522875,0.670501708984375,0.4663543701171875,-0.0008087158203125,1757481.990891875,1.612726211547852,0.08582063019275665,-0.1011295467615128,1757482.002653875,-118.77099609375,111.3996429443359,-270.9886474609375,1757481.995870875,-0.2809577690849148,1.233551599634827,-0.6870595114504303,1.956179857254028,0.2442959249019623,-0.09796062111854553,0.1102636456489563,-0.06770771741867065,0.6664592027664185,2,-0.1957923861998149,0.577717983142366,-0.3004411765820773,0.7332411078704435,0.7295649647712708,0.6342666149139404,-0.2558145523071289,24.22908020019531,30.49151611328125,11.94024658203125,-1,2,1757468.787300875,4,2,1676820287.871968,0,0,0,0,0,0,0,0,0,1757479.262887,0,-0.0052948,99.08993,1676820299.263031,0,182416158,0,0,1,1676820299.235293,1,0.82,1
1676820301.138892,57,1676820300.232712,34.04828651433091,-117.813592254774,217.3133,1.199729,1.35814,28.992336509812,46.28158077843599,6.595669402256187,13.02062158569125,-9999,1676820301.128887,24.27371978759766,31.93205261230469,9.196136474609375,344.7400512695312,333.2578125,12.47476196289062,1757482.053132875,0.688018798828125,0.771484375,-0.09527587890625,1757482.024501875,1.45763111114502,-0.001923068659380078,0.1181135922670364,1757482.032678875,-118.7322692871094,112.4633178710938,-273.3392944335938,1757481.995870875,-0.2809577690849148,1.233551599634827,-0.6870595114504303,1.956179857254028,0.2442959249019623,-0.09796062111854553,0.1102636456489563,-0.06770771741867065,0.6664592027664185,2,-0.1957923861998149,0.577717983142366,-0.3004411765820773,0.7332411078704435,0.7295649647712708,0.6342666149139404,-0.2558145523071289,24.22908020019531,30.49151611328125,11.94024658203125,-1,2,1757468.787300875,4,2,1676820287.871968,0,0,0,0,0,0,0,0,0,1757479.262887,0,-0.0052948,99.08993,1676820299.263031,0,182416158,0,0,1,1676820299.235293,1,0.82,1
1676820301.173477,58,1676820300.232712,34.04828651433091,-117.813592254774,217.3133,1.199729,1.35814,28.992336509812,46.28158077843599,6.595669402256187,13.02062158569125,-9999,1676820301.168783,23.03266906738281,32.65235137939453,7.137298583984375,348.6705932617188,337.1883544921875,12.47531032562256,1757482.086742875,0.5674285888671875,0.6338958740234375,0.0152587890625,1757482.058112875,1.319885492324829,-0.3660834431648254,-0.9718039631843567,1757482.062704875,-119.8141937255859,112.6832275390625,-275.0184326171875,1757482.055622875,-0.3950475153784352,1.158297393426061,-0.6591614113478574,1.190409421920776,-0.4090225398540497,-0.8574541807174683,-0.03474682569503784,0.1444123387336731,0.2102703154087067,2,-0.1639773828563733,0.5609407142738405,-0.3290918039274044,0.7417247750830511,0.7242000102996826,0.6124541759490967,-0.3169138729572296,24.04438781738281,31.96707153320312,8.355072021484375,-1,2,1757468.787300875,4,2,1676820287.871968,0,0,0,0,0,0,0,0,0,1757479.262887,0,-0.0052948,99.08993,1676820299.263031,0,182416158,0,0,1,1676820299.235293,1,0.82,1
1676820301.209259,59,1676820300.232712,34.04828651433091,-117.813592254774,217.3133,1.199729,1.35814,28.992336509812,46.28158077843599,6.595669402256187,13.02062158569125,-9999,1676820301.208655,20.60190582275391,34.60533905029297,2.14642333984375,356.1153564453125,344.6331176757812,12.47598361968994,1757482.120352875,0.54534912109375,-0.0442657470703125,-0.3700103759765625,1757482.091722875,3.407386779785156,0.1199634224176407,-1.726748943328857,1757482.092731875,-121.5919952392578,114.0190582275391,-278.1432495117188,1757482.115373875,-0.6327360074914897,1.003855717334007,-0.664769118968452,2.891953706741333,-0.02256741002202034,-1.569448590278625,-0.2549561858177185,-0.5580394864082336,0.2134647965431213,2,-0.1303642639132203,0.5212087248893988,-0.4070109191341749,0.7387076104550935,0.6639223694801331,0.6168774366378784,-0.4226932525634766,20.60190582275391,34.60533905029297,2.14642333984375,-1,2,1757468.787300875,4,2,1676820287.871968,0,0,0,0,0,0,0,0,0,1757479.262887,0,-0.0052948,99.08993,1676820299.263031,0,182416158,0,0,1,1676820299.235293,1,0.82,1
1676820301.248104,60,1676820300.232712,34.04828651433091,-117.813592254774,217.3133,1.199729,1.35814,28.992336509812,46.28158077843599,6.595669402256187,13.02062158569125,-9999,1676820301.228799,19.77867126464844,34.87268829345703,0.52471923828125,357.9830932617188,346.5008544921875,12.47622776031494,1757482.153962875,0.6495819091796875,-0.465057373046875,-0.579681396484375,1757482.125332875,2.186663150787354,0.106349341571331,-1.125978112220764,1757482.152782875,-123.330322265625,115.6305389404297,-283.1713256835938,1757482.115373875,-0.6327360074914897,1.003855717334007,-0.664769118968452,2.891953706741333,-0.02256741002202034,-1.569448590278625,-0.2549561858177185,-0.5580394864082336,0.2134647965431213,2,-0.1303642639132203,0.5212087248893988,-0.4070109191341749,0.7387076104550935,0.6639223694801331,0.6168774366378784,-0.4226932525634766,20.60190582275391,34.60533905029297,2.14642333984375,-1,2,1757468.787300875,4,2,1676820287.871968,0,0,0,0,0,0,0,0,0,1757479.262887,0,-0.0052948,99.08993,1676820299.263031,0,182416158,0,0,1,1676820299.235293,1,0.82,1
1676820301.273096,61,1676820300.232712,34.04828651433091,-117.813592254774,217.3133,1.199729,1.35814,28.992336509812,46.28158077843599,6.595669402256187,13.02062158569125,-9999,1676820301.268429,20.42770385742188,34.41519165039062,-0.877716064453125,354.123779296875,342.6415405273438,12.47666358947754,1757482.187573875,0.839019775390625,-0.2788238525390625,-0.4080352783203125,1757482.158942875,-0.392533153295517,-1.148659944534302,0.9893555641174316,1757482.182808875,-121.7353057861328,114.5763244628906,-283.1605224609375,1757482.175125875,-0.6711097134497834,0.9407317206796407,-0.6361694500164882,-1.559462666511536,-1.719016313552856,1.798089981079102,0.2121931314468384,-1.025682926177979,-0.1451884508132935,2,-0.1214825988283714,0.4982705730388051,-0.412643978185864,0.7527905167153583,0.6499285697937012,0.594118595123291,-0.4739368259906769,20.42770385742188,34.41519165039062,-0.877716064453125,-1,2,1757468.787300875,4,2,1676820287.871968,0,0,0,0,0,0,0,0,0,1757479.262887,0,-0.0052948,99.08993,1676820299.263031,0,182416158,0,0,1,1676820299.235293,1,0.82,1
1676820301.308385,62,1676820300.232712,34.04828651433091,-117.813592254774,217.3133,1.199729,1.35814,28.992336509812,46.28158077843599,6.595669402256187,13.02062158569125,-9999,1676820301.28831,21.9906005859375,33.66443634033203,-0.203277587890625,349.6411437988281,338.1589050292969,12.47688293457031,1757482.2211835,0.8668975830078125,0.0729217529296875,-0.033203125,1757482.192552875,-2.16193962097168,-1.732080578804016,2.373972415924072,1757482.2128325,-118.7081909179688,112.7681884765625,-280.7702941894531,1757482.175125875,-0.6711097134497834,0.9407317206796407,-0.6361694500164882,-1.559462666511536,-1.719016313552856,1.798089981079102,0.2121931314468384,-1.025682926177979,-0.1451884508132935,2,-0.1214825988283714,0.4982705730388051,-0.412643978185864,0.7527905167153583,0.6499285697937012,0.594118595123291,-0.4739368259906769,20.42770385742188,34.41519165039062,-0.877716064453125,-1,2,1757468.787300875,4,2,1676820287.871968,0,0,0,0,0,0,0,0,0,1757479.262887,0,-0.0052948,99.08993,1676820299.263031,0,182416158,0,0,1,1676820299.235293,1,0.82,1
1676820301.342929,63,1676820301.182925,34.0482827744395,-117.8136034251045,217.3442,1.027614,1.321045,23.25769869166068,47.58115402320924,6.880324987999846,12.99517275587658,-9999,1676820301.328192,26.53347778320312,31.06588745117188,3.2689208984375,339.413818359375,327.9315795898438,12.47636222839355,1757482.2547935,0.9810943603515625,0.5989990234375,0.110198974609375,1757482.2261625,-3.241429567337036,0.1824691444635391,3.093988418579102,1757482.2428575,-115.3879699707031,110.4496154785156,-276.9423217773438,1757482.2348765,-0.409974219619633,1.033845072167693,-0.5931380249732229,-3.783459186553955,0.7505084276199341,3.304507970809937,0.1412593126296997,-0.516821026802063,0.4278240501880646,2,-0.1525322609432231,0.5144517814215706,-0.3106374213878805,0.7845876040912654,0.7125005125999451,0.558965802192688,-0.4241465628147125,26.53347778320312,31.06588745117188,3.2689208984375,-1,2,1757468.787300875,4,2,1676820287.871968,0,0,0,0,0,0,0,0,0,1757479.262887,0,-0.0052948,99.08993,1676820299.263031,0,182416158,0,0,1,1676820299.235293,1,0.82,1
1676820301.37758,64,1676820301.182925,34.0482827744395,-117.8136034251045,217.3442,1.027614,1.321045,23.25769869166068,47.58115402320924,6.880324987999846,12.99517275587658,-9999,1676820301.368271,29.977783203125,27.09468841552734,10.45266723632812,329.8787231445312,318.396484375,12.47509956359863,1757482.2884035,1.161972045898438,0.7393035888671875,-0.038726806640625,1757482.2597725,-4.500240802764893,2.0046546459198,2.282069444656372,1757482.2728815,-112.8286895751953,107.1092224121094,-271.3090209960938,1757482.2348765,-0.409974219619633,1.033845072167693,-0.5931380249732229,-3.783459186553955,0.7505084276199341,3.304507970809937,0.1412593126296997,-0.516821026802063,0.4278240501880646,2,-0.1525322609432231,0.5144517814215706,-0.3106374213878805,0.7845876040912654,0.7125005125999451,0.558965802192688,-0.4241465628147125,26.53347778320312,31.06588745117188,3.2689208984375,-1,2,1757468.787300875,4,2,1676820287.871968,0,0,0,0,0,0,0,0,0,1757479.262887,0,-0.0052948,99.08993,1676820299.263031,0,182416158,0,0,1,1676820299.235293,1,0.82,1
1676820301.412154,65,1676820301.182925,34.0482827744395,-117.8136034251045,217.3442,1.027614,1.321045,23.25769869166068,47.58115402320924,6.880324987999846,12.99517275587658,-9999,1676820301.407731,31.68769836425781,23.04820251464844,15.26089477539062,320.9129943847656,309.4307556152344,12.47544574737549,1757482.3220145,0.8103790283203125,0.5055084228515625,0.2423248291015625,1757482.2933825,-3.714457273483276,0.002893790835514665,1.332790732383728,1757482.3029055,-111.8175964355469,104.5356903076172,-267.973876953125,1757482.2946275,-0.07115196792487546,1.290309303051874,-0.5744168710005038,-3.691232681274414,-0.04550425708293915,1.364246487617493,0.3020933270454407,0.1523944139480591,0.1850786805152893,2,-0.2056842983440957,0.5843765299991861,-0.1974876946974145,0.7597346902692996,0.8067020177841187,0.5433453321456909,-0.2323960810899734,30.61856079101562,25.1702880859375,13.47747802734375,-1,2,1757468.787300875,4,2,1676820287.871968,0,0,0,0,0,0,0,0,0,1757479.262887,0,-0.0052948,99.08993,1676820299.263031,0,182416158,0,0,1,1676820299.235293,1,0.82,1
1676820301.447089,66,1676820301.182925,34.0482827744395,-117.8136034251045,217.3442,1.027614,1.321045,23.25769869166068,47.58115402320924,6.880324987999846,12.99517275587658,-9999,1676820301.427997,32.44959259033203,20.71720886230469,17.6419677734375,316.2217712402344,304.7395324707031,12.47561550140381,1757482.3556245,1.047561645507812,0.4097900390625,0.3179931640625,1757482.3269935,-2.972630023956299,1.043853402137756,2.50961709022522,1757482.3329305,-110.5728149414062,100.7109527587891,-264.2789306640625,1757482.2946275,-0.07115196792487546,1.290309303051874,-0.5744168710005038,-3.691232681274414,-0.04550425708293915,1.364246487617493,0.3020933270454407,0.1523944139480591,0.1850786805152893,2,-0.2056842983440957,0.5843765299991861,-0.1974876946974145,0.7597346902692996,0.8067020177841187,0.5433453321456909,-0.2323960810899734,30.61856079101562,25.1702880859375,13.47747802734375,-1,2,1757468.787300875,4,2,1676820287.871968,0,0,0,0,0,0,0,0,0,1757479.262887,0,-0.0052948,99.08993,1676820299.263031,0,182416158,0,0,1,1676820299.235293,1,0.82,1
1676820301.477493,67,1676820301.182925,34.0482827744395,-117.8136034251045,217.3442,1.027614,1.321045,23.25769869166068,47.58115402320924,6.880324987999846,12.99517275587658,-9999,1676820301.46773,33.43942260742188,15.18527221679688,23.142578125,307.9502258300781,296.4679870605469,12.47607231140137,1757482.3892345,1.103424072265625,0.6870880126953125,0.21240234375,1757482.3606035,-2.045625686645508,3.099471092224121,3.103717803955078,1757482.3629535,-109.6123962402344,96.579833984375,-260.28857421875,1757482.3543795,0.1625393153369041,1.474405686680353,-0.4740310569620457,-2.18646764755249,2.940581798553467,3.013742685317993,0.1209254264831543,-0.06235724687576294,0.4866152405738831,2,-0.2263080847880553,0.6371576954858392,-0.09889630447270453,0.7300920690613685,0.88560551404953,0.4564765691757202,-0.08562944084405899,33.29178619384766,17.80223083496094,19.96453857421875,-1,2,1757468.787300875,4,2,1676820287.871968,0,0,0,0,0,0,0,0,0,1757479.262887,0,-0.0052948,99.08993,1676820299.263031,0,182416158,0,0,1,1676820299.235293,1,0.82,1
1676820301.511987,68,1676820301.182925,34.0482827744395,-117.8136034251045,217.3442,1.027614,1.321045,23.25769869166068,47.58115402320924,6.880324987999846,12.99517275587658,-9999,1676820301.507341,33.19089508056641,10.68053436279297,27.15144348144531,302.2751159667969,290.7928771972656,12.47658538818359,1757482.4228445,0.8315582275390625,1.004531860351562,0.388397216796875,1757482.3942135,-0.9326211810112,2.64008641242981,2.754442453384399,1757482.4230085,-110.6011810302734,90.05654907226562,-254.1730194091797,1757482.4141305,0.2451202820724321,1.672980428943912,-0.3028035278560425,-0.3338585793972015,2.363210201263428,2.215865135192871,-0.006577908992767334,0.7950949668884277,0.2967996597290039,2,-0.1900150766945956,0.7159448586614282,-0.03013461153809976,0.6711254661796705,0.9495255947113037,0.2981973588466644,0.09736554324626923,33.19089508056641,10.68053436279297,27.15144348144531,-1,2,1757468.787300875,4,2,1676820287.871968,0,0,0,0,0,0,0,0,0,1757479.262887,0,-0.0052948,99.08993,1676820299.263031,0,182416158,0,0,1,1676820299.235293,1,0.82,1
1676820301.542173,69,1676820301.182925,34.0482827744395,-117.8136034251045,217.3442,1.027614,1.321045,23.25769869166068,47.58115402320924,6.880324987999846,12.99517275587658,-9999,1676820301.527266,32.47782897949219,8.937431335449219,28.78094482421875,300.5833129882812,289.10107421875,12.47683906555176,1757482.4564555,0.7707672119140625,0.392669677734375,0.22650146484375,1757482.4278235,-0.04191922023892403,2.337904453277588,2.137768983840942,1757482.4530345,-111.217529296875,87.90855407714844,-252.6589660644531,1757482.4141305,0.2451202820724321,1.672980428943912,-0.3028035278560425,-0.3338585793972015,2.363210201263428,2.215865135192871,-0.006577908992767334,0.7950949668884277,0.2967996597290039,2,-0.1900150766945956,0.7159448586614282,-0.03013461153809976,0.6711254661796705,0.9495255947113037,0.2981973588466644,0.09736554324626923,33.19089508056641,10.68053436279297,27.15144348144531,-1,2,1757468.787300875,4,2,1676820287.871968,0,0,0,0,0,0,0,0,0,1757479.262887,0,-0.0052948,99.08993,1676820299.263031,0,182416158,0,0,1,1676820299.235293,1,0.82,1
1676820301.576746,70,1676820301.182925,34.0482827744395,-117.8136034251045,217.3442,1.027614,1.321045,23.25769869166068,47.58115402320924,6.880324987999846,12.99517275587658,-9999,1676820301.567458,31.76993560791016,7.022308349609375,30.99697875976562,297.9377136230469,286.4554748535156,12.47722911834717,1757482.4900655,1.371536254882812,0.4545135498046875,0.068939208984375,1757482.4614345,-0.1449830234050751,1.053218960762024,1.295168161392212,1757482.4830635,-111.0162048339844,86.90509033203125,-251.1054382324219,1757482.4738825,0.234972003084357,1.771859233142538,-0.1990791178944643,-0.5247190594673157,0.521308958530426,0.1894266456365585,0.003395795822143555,0.1287713646888733,-0.01206576824188232,2,-0.1527631763750429,0.7579885672221272,-0.002655674767672478,0.6341213350092205,0.9605020880699158,0.1977667212486267,0.1957665085792542,31.76993560791016,7.022308349609375,30.99697875976562,-1,2,1757468.787300875,4,2,1676820287.871968,0,0,0,0,0,0,0,0,0,1757479.262887,0,-0.0052948,99.08993,1676820299.263031,0,182416158,0,0,1,1676820299.235293,1,0.82,1
1676820301.611832,71,1676820301.182925,34.0482827744395,-117.8136034251045,217.3442,1.027614,1.321045,23.25769869166068,47.58115402320924,6.880324987999846,12.99517275587658,-9999,1676820301.607218,30.40296936035156,6.510528564453125,31.96903991699219,297.5101318359375,286.0278930664062,12.47766399383545,1757482.5236755,0.8385162353515625,0.282623291015625,-0.1162872314453125,1757482.4950445,-1.353657364845276,0.4982185661792755,-1.26055371761322,1757482.5130915,-112.9505310058594,86.95613098144531,-250.2301635742188,1757482.4738825,0.234972003084357,1.771859233142538,-0.1990791178944643,-0.5247190594673157,0.521308958530426,0.1894266456365585,0.003395795822143555,0.1287713646888733,-0.01206576824188232,2,-0.1527631763750429,0.7579885672221272,-0.002655674767672478,0.6341213350092205,0.9605020880699158,0.1977667212486267,0.1957665085792542,31.76993560791016,7.022308349609375,30.99697875976562,-1,2,1757468.787300875,4,2,1676820287.871968,0,0,0,0,0,0,0,0,0,1757479.262887,0,-0.0052948,99.08993,1676820299.263031,0,182416158,0,0,1,1676820299.235293,1,0.82,1
1676820301.649945,72,1676820301.182925,34.0482827744395,-117.8136034251045,217.3442,1.027614,1.321045,23.25769869166068,47.58115402320924,6.880324987999846,12.99517275587658,-9999,1676820301.647002,30.17466735839844,5.821952819824219,31.81095886230469,296.1025390625,284.6203002929688,12.47805404663086,1757482.5572855,0.6527557373046875,0.4973907470703125,-0.07037353515625,1757482.5286545,-0.9327833652496338,-0.2886064946651459,-0.6827479600906372,1757482.5431165,-113.1590423583984,86.82138061523438,-251.0192718505859,1757482.5336335,0.3163241959649042,1.805199726199962,-0.2435357896558227,-0.7823938131332397,-0.5373385548591614,-0.4170335531234741,-0.242733895778656,0.08865267038345337,-0.3340667188167572,2,-0.1970336651036253,0.7575501819167437,0.002707657998095164,0.6223250064121297,0.9439518451690674,0.2411355823278427,0.2254090905189514,29.89772033691406,6.497314453125,32.07493591308594,-1,2,1757468.787300875,4,2,1676820287.871968,0,0,0,0,0,0,0,0,0,1757479.262887,0,-0.0052948,99.08993,1676820299.263031,0,182416158,0,0,1,1676820299.235293,1,0.82,1
1676820301.676819,73,1676820301.182925,34.0482827744395,-117.8136034251045,217.3442,1.027614,1.321045,23.25769869166068,47.58115402320924,6.880324987999846,12.99517275587658,-9999,1676820301.666691,30.52702331542969,5.893341064453125,31.69451904296875,295.387451171875,283.9052124023438,12.47821235656738,1757482.5908955,0.9657135009765625,0.40093994140625,-0.3459320068359375,1757482.5622645,-0.3250713050365448,-0.4552639126777649,0.03530286252498627,1757482.5731425,-112.5100402832031,86.38543701171875,-250.8584289550781,1757482.5336335,0.3163241959649042,1.805199726199962,-0.2435357896558227,-0.7823938131332397,-0.5373385548591614,-0.4170335531234741,-0.242733895778656,0.08865267038345337,-0.3340667188167572,2,-0.1970336651036253,0.7575501819167437,0.002707657998095164,0.6223250064121297,0.9439518451690674,0.2411355823278427,0.2254090905189514,29.89772033691406,6.497314453125,32.07493591308594,-1,2,1757468.787300875,4,2,1676820287.871968,0,0,0,0,0,0,0,0,0,1757479.262887,0,-0.0052948,99.08993,1676820299.263031,0,182416158,0,0,1,1676820299.235293,1,0.82,1
1676820301.71148,74,1676820301.182925,34.0482827744395,-117.8136034251045,217.3442,1.027614,1.321045,23.25769869166068,47.58115402320924,6.880324987999846,12.99517275587658,-9999,1676820301.706962,32.06976318359375,4.734947204589844,30.59628295898438,291.7392578125,280.2570190429688,12.47852230072021,1757482.6245055,0.91925048828125,0.243072509765625,0.114532470703125,1757482.5958755,-1.089656829833984,-1.121441125869751,0.0434795655310154,1757482.6031675,-111.3057708740234,85.41665649414062,-251.3524780273438,1757482.5933855,0.3484426675236657,1.776761202950283,-0.2384605477885662,-1.010709285736084,-0.9785775542259216,0.04020467400550842,-0.01058274507522583,0.1739949882030487,-0.5364015102386475,2,-0.207447980138631,0.7458737566450364,0.01763262728188586,0.6327139090055215,0.9511650800704956,0.2362070232629776,0.1987246572971344,31.05661773681641,5.245750427246094,31.70658874511719,-1,2,1757468.787300875,4,2,1676820287.871968,0,0,0,0,0,0,0,0,0,1757479.262887,0,-0.0052948,99.08993,1676820299.263031,0,182416158,0,0,1,1676820299.235293,1,0.82,1
1676820301.746291,75,1676820301.182925,34.0482827744395,-117.8136034251045,217.3442,1.027614,1.321045,23.25769869166068,47.58115402320924,6.880324987999846,12.99517275587658,-9999,1676820301.726415,33.57012939453125,4.055198669433594,29.58511352539062,289.9210205078125,278.4387817382812,12.47869300842285,1757482.6581155,1.058212280273438,0.135162353515625,0.288726806640625,1757482.6294855,-1.022633910179138,-2.367975234985352,-0.2353744357824326,1757482.6331925,-109.2730407714844,84.46528625488281,-253.0489044189453,1757482.6531365,0.4152104267149967,1.673200804105397,-0.2377304098010549,-0.8878174424171448,-2.029225587844849,-0.258622944355011,0.1022167205810547,-0.06881043314933777,0.2156825214624405,2,-0.2296805006087745,0.7049270384445105,0.05097815401565067,0.669123487673404,0.966783881187439,0.2354974746704102,0.09935052692890167,34.53072357177734,3.981300354003906,27.87733459472656,-1,2,1757468.787300875,4,2,1676820287.871968,0,0,0,0,0,0,0,0,0,1757479.262887,0,-0.0052948,99.08993,1676820299.263031,0,182416158,0,0,1,1676820299.235293,1,0.82,1
1676820301.780983,76,1676820301.182925,34.0482827744395,-117.8136034251045,217.3442,1.027614,1.321045,23.25769869166068,47.58115402320924,6.880324987999846,12.99517275587658,-9999,1676820301.766464,35.65891265869141,3.640457153320312,27.51622009277344,287.1096801757812,275.62744140625,12.47901916503906,1757482.6917255,1.162460327148438,-0.2103118896484375,0.1806488037109375,1757482.6630955,-1.119649052619934,-1.305978536605835,-0.2906107902526855,1757482.6932425,-107.3592681884766,83.24090576171875,-255.4806213378906,1757482.6531365,0.4152104267149967,1.673200804105397,-0.2377304098010549,-0.8878174424171448,-2.029225587844849,-0.258622944355011,0.1022167205810547,-0.06881043314933777,0.2156825214624405,2,-0.2296805006087745,0.7049270384445105,0.05097815401565067,0.669123487673404,0.966783881187439,0.2354974746704102,0.09935052692890167,34.53072357177734,3.981300354003906,27.87733459472656,-1,2,1757468.787300875,4,2,1676820287.871968,0,0,0,0,0,0,0,0,0,1757479.262887,0,-0.0052948,99.08993,1676820299.263031,0,182416158,0,0,1,1676820299.235293,1,0.82,1
1676820301.81082,77,1676820301.182925,34.0482827744395,-117.8136034251045,217.3442,1.027614,1.321045,23.25769869166068,47.58115402320924,6.880324987999846,12.99517275587658,-9999,1676820301.806247,34.91045379638672,2.363960266113281,28.114501953125,284.4459533691406,272.9637145996094,12.47942161560059,1757482.7253365,1.12841796875,-0.131195068359375,0.3491668701171875,1757482.6967055,-2.214036464691162,0.3757206201553345,-0.9508774280548096,1757482.7232685,-108.9168548583984,82.92153930664062,-254.0196380615234,1757482.7128885,0.5262120065859239,1.684464728437081,-0.267716488223605,-2.127119064331055,0.8471540212631226,-1.243080496788025,0.2711549997329712,-0.4997289180755615,0.1370614767074585,2,-0.2781174443562229,0.6908996819651653,0.07546151618842192,0.6630339871498689,0.9581542611122131,0.2645299732685089,0.1093833670020103,34.91045379638672,2.363960266113281,28.114501953125,-1,2,1757468.787300875,4,2,1676820287.871968,0,0,0,0,0,0,0,0,0,1757479.262887,0,-0.0052948,99.08993,1676820299.263031,0,182416158,0,0,1,1676820299.235293,1,0.82,1
1676820301.850096,78,1676820301.182925,34.0482827744395,-117.8136034251045,217.3442,1.027614,1.321045,23.25769869166068,47.58115402320924,6.880324987999846,12.99517275587658,-9999,1676820301.846117,32.20267486572266,2.317611694335938,30.56179809570312,286.0406188964844,274.5583801269531,12.47990798950195,1757482.7589465,1.118698120117188,0.0991668701171875,0.37628173828125,1757482.7303155,-1.705468058586121,1.653016924858093,-1.46802544593811,1757482.7532975,-111.2738189697266,82.87477111816406,-251.7472534179688,1757482.7128885,0.5262120065859239,1.684464728437081,-0.267716488223605,-2.127119064331055,0.8471540212631226,-1.243080496788025,0.2711549997329712,-0.4997289180755615,0.1370614767074585,2,-0.2781174443562229,0.6908996819651653,0.07546151618842192,0.6630339871498689,0.9581542611122131,0.2645299732685089,0.1093833670020103,34.91045379638672,2.363960266113281,28.114501953125,-1,2,1757468.787300875,4,2,1676820287.871968,0,0,0,0,0,0,0,0,0,1757479.262887,0,-0.0052948,99.08993,1676820299.263031,0,182416158,0,0,1,1676820299.235293,1,0.82,1
1676820301.883548,79,1676820301.182925,34.0482827744395,-117.8136034251045,217.3442,1.027614,1.321045,23.25769869166068,47.58115402320924,6.880324987999846,12.99517275587658,-9999,1676820301.866021,30.41658020019531,3.621337890625,31.99566650390625,290.0669250488281,278.5846862792969,12.48018646240234,1757482.7925565,0.5323333740234375,0.327178955078125,0.4573822021484375,1757482.7639265,-0.2355025410652161,2.634068489074707,-2.437291383743286,1757482.7833245,-113.5733795166016,85.13459777832031,-249.7641143798828,1757482.7726395,0.6203847567522428,1.828483884590181,-0.3634448226353679,0.3186255395412445,2.411497592926025,-2.506884574890137,0.1928631067276001,-0.2318083643913269,0.2002022266387939,2,-0.3428484406707464,0.7082047948981288,0.0469295626705105,0.615385062076946,0.9038167595863342,0.3554961383342743,0.2381981760263443,30.41658020019531,3.621337890625,31.99566650390625,-1,2,1757468.787300875,4,2,1676820287.871968,0,0,0,0,0,0,0,0,0,1757479.262887,0,-0.0052948,99.08993,1676820299.263031,0,182416158,0,0,1,1676820299.235293,1,0.82,1
1676820301.915545,80,1676820301.182925,34.0482827744395,-117.8136034251045,217.3442,1.027614,1.321045,23.25769869166068,47.58115402320924,6.880324987999846,12.99517275587658,-9999,1676820301.906058,30.02561950683594,6.772895812988281,32.3306884765625,295.7582702636719,284.2760314941406,12.48059272766113,1757482.8261665,0.759765625,0.587066650390625,0.4493255615234375,1757482.7975365,1.451300859451294,-0.5712767839431763,-1.33365535736084,1757482.8133515,-112.9075622558594,87.53878784179688,-250.2763671875,1757482.7726395,0.6203847567522428,1.828483884590181,-0.3634448226353679,0.3186255395412445,2.411497592926025,-2.506884574890137,0.1928631067276001,-0.2318083643913269,0.2002022266387939,2,-0.3428484406707464,0.7082047948981288,0.0469295626705105,0.615385062076946,0.9038167595863342,0.3554961383342743,0.2381981760263443,30.41658020019531,3.621337890625,31.99566650390625,-1,2,1757468.787300875,4,2,1676820287.871968,0,0,0,0,0,0,0,0,0,1757479.262887,0,-0.0052948,99.08993,1676820299.263031,0,182416158,0,0,1,1676820299.235293,1,0.82,1
1676820301.945662,81,1676820301.182925,34.0482827744395,-117.8136034251045,217.3442,1.027614,1.321045,23.25769869166068,47.58115402320924,6.880324987999846,12.99517275587658,-9999,1676820301.925965,30.75505828857422,6.766532897949219,31.27859497070312,295.2312622070312,283.7490234375,12.48074626922607,1757482.8597775,1.053375244140625,0.30450439453125,0.127716064453125,1757482.8311465,0.2253516316413879,-1.158649206161499,0.280005544424057,1757482.8433765,-112.2982940673828,87.40731811523438,-251.3533172607422,1757482.8323915,0.5779995057536098,1.790557159420336,-0.4359430287427833,0.1691006124019623,-1.111897945404053,0.2588442265987396,-0.05300629138946533,0.1721407771110535,0.2034698724746704,2,-0.3467551882703409,0.6917836548467291,0.01223114431733106,0.6332825645713913,0.8846715092658997,0.4222654104232788,0.1976075768470764,30.75505828857422,6.766532897949219,31.27859497070312,-1,2,1757468.787300875,4,2,1676820287.871968,0,0,0,0,0,0,0,0,0,1757480.263464,0,-0.06607056,99.09062,1676820299.263031,0,182416158,0,0,1,1676820299.235293,1,0.82,1
1676820301.980309,82,1676820301.182925,34.0482827744395,-117.8136034251045,217.3442,1.027614,1.321045,23.25769869166068,47.58115402320924,6.880324987999846,12.99517275587658,-9999,1676820301.965481,31.10037231445312,6.614250183105469,30.44786071777344,293.7446899414062,282.262451171875,12.48108196258545,1757482.8933875,0.9385986328125,0.56719970703125,0.1814727783203125,1757482.8647565,-0.1463955640792847,-0.2968487143516541,0.4246127903461456,1757482.8734015,-111.9743041992188,86.98641967773438,-252.1222076416016,1757482.8323915,0.5779995057536098,1.790557159420336,-0.4359430287427833,0.1691006124019623,-1.111897945404053,0.2588442265987396,-0.05300629138946533,0.1721407771110535,0.2034698724746704,2,-0.3467551882703409,0.6917836548467291,0.01223114431733106,0.6332825645713913,0.8846715092658997,0.4222654104232788,0.1976075768470764,30.75505828857422,6.766532897949219,31.27859497070312,-1,2,1757468.787300875,4,2,1676820287.871968,0,0,0,0,0,0,0,0,0,1757480.263464,0,-0.06607056,99.09062,1676820299.263031,0,182416158,0,0,1,1676820299.235293,1,0.82,1
1676820302.015139,83,1676820301.182925,34.0482827744395,-117.8136034251045,217.3442,1.027614,1.321045,23.25769869166068,47.58115402320924,6.880324987999846,12.99517275587658,-9999,1676820302.005342,31.95418548583984,6.584426879882812,30.00743103027344,293.4264831542969,281.9442443847656,12.48144817352295,1757482.9269975,0.7100677490234375,0.7523345947265625,-0.0446624755859375,1757482.8983665,0.2425678968429565,-0.4222663044929504,0.1193319857120514,1757482.9034275,-111.3052368164062,87.3487548828125,-252.0640258789062,1757482.8921425,0.5767382259106569,1.760083530292419,-0.4171496092574804,0.2104234993457794,-0.6056641936302185,0.2592569291591644,0.05641263723373413,0.1136426627635956,0.01388940215110779,2,-0.3409248076823992,0.6854065762134656,0.02425358960306932,0.6429618343893702,0.8979178667068481,0.405156135559082,0.1720238029956818,31.28264617919922,6.46490478515625,29.99603271484375,-1,2,1757468.787300875,4,2,1676820287.871968,0,0,0,0,0,0,0,0,0,1757480.263464,0,-0.06607056,99.09062,1676820299.263031,0,182416158,0,0,1,1676820299.235293,1,0.82,1
1676820302.050612,84,1676820301.182925,34.0482827744395,-117.8136034251045,217.3442,1.027614,1.321045,23.25769869166068,47.58115402320924,6.880324987999846,12.99517275587658,-9999,1676820302.045024,32.22185516357422,7.138236999511719,29.21263122558594,293.4600219726562,281.977783203125,12.48184204101562,1757482.9606075,0.66204833984375,0.6491851806640625,0.140960693359375,1757482.9319765,-0.4543121159076691,-1.075939178466797,-0.7368671298027039,1757482.9634785,-111.0986938476562,87.91609191894531,-253.7769622802734,1757482.9518945,0.5920155549177994,1.727973289148566,-0.4445174706361755,-0.3951319754123688,-0.7821918725967407,-1.143697738647461,-0.1076470017433167,0.3797158896923065,0.1047904491424561,2,-0.353292217553918,0.6677154823085155,0.02444052271913856,0.6547850503031096,0.8916895389556885,0.4300222992897034,0.1413187086582184,32.22185516357422,7.138236999511719,29.21263122558594,-1,2,1757468.787300875,4,2,1676820287.871968,0,0,0,0,0,0,0,0,0,1757480.263464,0,-0.06607056,99.09062,1676820299.263031,0,182416158,0,0,1,1676820299.235293,1,0.82,1
1676820302.092606,85,1676820301.182925,34.0482827744395,-117.8136034251045,217.3442,1.027614,1.321045,23.25769869166068,47.58115402320924,6.880324987999846,12.99517275587658,-9999,1676820302.085128,32.90325164794922,9.006690979003906,26.85986328125,295.3232421875,283.8410034179688,12.48226070404053,1757482.9942185,0.872894287109375,0.6343536376953125,-0.0236968994140625,1757482.9655865,0.2426019906997681,-1.280533075332642,-0.9884777665138245,1757482.9935035,-110.0951385498047,89.70184326171875,-255.802734375,1757482.9518945,0.5920155549177994,1.727973289148566,-0.4445174706361755,-0.3951319754123688,-0.7821918725967407,-1.143697738647461,-0.1076470017433167,0.3797158896923065,0.1047904491424561,2,-0.353292217553918,0.6677154823085155,0.02444052271913856,0.6547850503031096,0.8916895389556885,0.4300222992897034,0.1413187086582184,32.22185516357422,7.138236999511719,29.21263122558594,-1,2,1757468.787300875,4,2,1676820287.871968,0,0,0,0,0,0,0,0,0,1757480.263464,0,-0.06607056,99.09062,1676820299.263031,0,182416158,0,0,1,1676820299.235293,1,0.82,1
1676820302.114754,86,1676820301.182925,34.0482827744395,-117.8136034251045,217.3442,1.027614,1.321045,23.25769869166068,47.58115402320924,6.880324987999846,12.99517275587658,-9999,1676820302.105228,33.61643218994141,10.05281829833984,25.61715698242188,296.6502380371094,285.1679992675781,12.48247241973877,1757483.0278285,0.6641082763671875,0.5424346923828125,0.12335205078125,1757482.9991975,1.225484490394592,-1.800838828086853,-0.9443260431289673,1757483.0235295,-109.2006530761719,91.30337524414062,-258.0858459472656,1757483.0116455,0.551749398332547,1.618660936309381,-0.505381934726473,1.277072072029114,-1.419309973716736,-0.7094913125038147,-0.006082892417907715,0.09843888878822327,0.002171989530324936,2,-0.3568807349487748,0.6273505133521405,0.007854005745992973,0.692102494263229,0.87398761510849,0.4841416776180267,0.04186505079269409,33.61643218994141,10.05281829833984,25.61715698242188,-1,2,1757468.787300875,4,2,1676820287.871968,0,0,0,0,0,0,0,0,0,1757480.263464,0,-0.06607056,99.09062,1676820299.263031,0,182416158,0,0,1,1676820299.235293,1,0.82,1
1676820302.151032,87,1676820301.182925,34.0482827744395,-117.8136034251045,217.3442,1.027614,1.321045,23.25769869166068,47.58115402320924,6.880324987999846,12.99517275587658,-9999,1676820302.144971,33.77178192138672,11.73882293701172,23.93536376953125,299.5873413085938,288.1051025390625,12.48283576965332,1757483.0614385,1.347564697265625,1.0084228515625,0.159881591796875,1757483.0328075,1.067728400230408,-0.4824390709400177,-0.310790091753006,1757483.0535555,-109.3905181884766,92.36190795898438,-258.6595458984375,1757483.0116455,0.551749398332547,1.618660936309381,-0.505381934726473,1.277072072029114,-1.419309973716736,-0.7094913125038147,-0.006082892417907715,0.09843888878822327,0.002171989530324936,2,-0.3568807349487748,0.6273505133521405,0.007854005745992973,0.692102494263229,0.87398761510849,0.4841416776180267,0.04186505079269409,33.61643218994141,10.05281829833984,25.61715698242188,-1,2,1757468.787300875,4,2,1676820287.871968,0,0,0,0,0,0,0,0,0,1757480.263464,0,-0.06607056,99.09062,1676820299.263031,0,182416158,0,0,1,1676820299.235293,1,0.82,1
1676820302.184352,88,1676820301.182925,34.0482827744395,-117.8136034251045,217.3442,1.027614,1.321045,23.25769869166068,47.58115402320924,6.880324987999846,12.99517275587658,-9999,1676820302.164897,32.64180755615234,13.17350006103516,24.53448486328125,303.4473266601562,291.965087890625,12.48308372497559,1757483.0950485,0.895660400390625,0.5900726318359375,-0.0167694091796875,1757483.0664175,0.6854435801506042,1.168385982513428,-2.21811056137085,1757483.0835805,-111.5350494384766,95.35079956054688,-257.8638916015625,1757483.0713975,0.4871704398175592,1.579703204135718,-0.5646671935582692,0.6034976243972778,1.406993985176086,-2.460099697113037,0.3376245498657227,0.3450838327407837,0.2098679542541504,2,-0.3548476382950604,0.6146911593040911,-0.02897293353757852,0.7038455885304699,0.8447333574295044,0.5351346731185913,0.007524135522544384,33.18880462646484,12.37421417236328,24.13180541992188,-1,2,1757468.787300875,4,2,1676820287.871968,0,0,0,0,0,0,0,0,0,1757480.263464,0,-0.06607056,99.09062,1676820299.263031,0,182416158,0,0,1,1676820299.235293,1,0.82,1
1676820302.214429,89,1676820301.182925,34.0482827744395,-117.8136034251045,217.3442,1.027614,1.321045,23.25769869166068,47.58115402320924,6.880324987999846,12.99517275587658,-9999,1676820302.204668,27.70838165283203,17.39515686035156,26.04592895507812,315.1618347167969,303.6795959472656,12.48375606536865,1757483.1286595,0.6741943359375,0.39129638671875,-0.1328277587890625,1757483.1000275,0.4024928510189056,2.320738792419434,-3.504371643066406,1757483.1136065,-115.984375,98.38227844238281,-256.1166687011719,1757483.0713975,0.4871704398175592,1.579703204135718,-0.5646671935582692,0.6034976243972778,1.406993985176086,-2.460099697113037,0.3376245498657227,0.3450838327407837,0.2098679542541504,2,-0.3548476382950604,0.6146911593040911,-0.02897293353757852,0.7038455885304699,0.8447333574295044,0.5351346731185913,0.007524135522544384,33.18880462646484,12.37421417236328,24.13180541992188,-1,2,1757468.787300875,4,2,1676820287.871968,0,0,0,0,0,0,0,0,0,1757480.263464,0,-0.06607056,99.09062,1676820299.263031,0,182416158,0,0,1,1676820299.235293,1,0.82,1
1676820302.251171,90,1676820301.182925,34.0482827744395,-117.8136034251045,217.3442,1.027614,1.321045,23.25769869166068,47.58115402320924,6.880324987999846,12.99517275587658,-9999,1676820302.244455,21.96563720703125,22.07463073730469,26.85820007324219,328.8382873535156,317.3560485839844,12.48441696166992,1757483.1622695,0.5959320068359375,0.1981353759765625,-0.427764892578125,1757483.1336385,1.25720751285553,1.847448706626892,-3.914962768554688,1757483.1436305,-120.3769683837891,102.1471862792969,-255.8470001220703,1757483.1311485,0.4569673527139709,1.69022966905804,-0.7718109830651471,1.207494020462036,1.988588094711304,-3.910480737686157,-0.02758371829986572,-0.2975623607635498,-0.1931306123733521,2,-0.4002758709543714,0.6184443789188601,-0.1349843493940761,0.6626349908679977,0.7115437984466553,0.6974342465400696,0.08538844436407089,26.33992767333984,18.50018310546875,26.66709899902344,-1,2,1757468.787300875,4,2,1676820287.871968,0,0,0,0,0,0,0,0,0,1757480.263464,0,-0.06607056,99.09062,1676820299.263031,0,182416158,0,0,1,1676820299.235293,1,0.82,1
1676820302.290744,91,1676820301.182925,34.0482827744395,-117.8136034251045,217.3442,1.027614,1.321045,23.25769869166068,47.58115402320924,6.880324987999846,12.99517275587658,-9999,1676820302.284131,15.89175415039062,26.67523193359375,25.9869384765625,342.5433044433594,331.0610656738281,12.48494243621826,1757483.195879542,0.611572265625,0.5745086669921875,0.0258636474609375,1757483.1672485,1.311119675636292,1.282133936882019,-3.732993841171265,1757483.1736565,-124.8428344726562,105.1967315673828,-255.6554107666016,1757483.1909005,0.366880336699491,1.693077888106658,-1.012898247217959,2.260587453842163,0.6230572462081909,-4.467883110046387,0.1763460040092468,-0.3704489469528198,0.04608166962862015,2,-0.4354838821946645,0.5853557925902043,-0.2515298196634528,0.6359602484069874,0.52545166015625,0.8483697772026062,0.06457523256540298,17.49768829345703,25.28800964355469,26.73150634765625,-1,2,1757468.787300875,4,2,1676820287.871968,0,0,0,0,0,0,0,0,0,1757480.263464,0,-0.06607056,99.09062,1676820299.263031,0,182416158,0,0,1,1676820299.235293,1,0.82,1
1676820302.318716,92,1676820302.132477,34.04827612845974,-117.8136159508318,217.3687,1.027614,1.331321,16.37998118887383,50.02027998453536,9.747765245857371,17.75714029013245,-9999,1676820302.312427,12.7606201171875,36.09751129150391,24.56149291992188,348.5414733886719,337.0592346191406,13.11326885223389,1757483.229489542,0.23382568359375,0.622406005859375,-0.1027069091796875,1757483.200858542,2.480318546295166,-0.1370247006416321,-4.548118591308594,1757483.203684542,-129.06494140625,109.0412445068359,-257.0397338867188,1757483.1909005,0.366880336699491,1.693077888106658,-1.012898247217959,2.260587453842163,0.6230572462081909,-4.467883110046387,0.1763460040092468,-0.3704489469528198,0.04608166962862015,2,-0.4354838821946645,0.5853557925902043,-0.2515298196634528,0.6359602484069874,0.52545166015625,0.8483697772026062,0.06457523256540298,17.49768829345703,25.28800964355469,26.73150634765625,-1,2,1757468.787300875,4,2,1676820287.871968,0,0,0,0,0,0,0,0,0,1757480.263464,0,-0.06607056,99.09062,1676820299.263031,0,182416158,0,0,1,1676820299.235293,1,0.82,1
1676820302.35058,93,1676820302.132477,34.04827612845974,-117.8136159508318,217.3687,1.027614,1.331321,16.37998118887383,50.02027998453536,9.747765245857371,17.75714029013245,-9999,1676820302.344076,9.477996826171875,39.29510498046875,20.37200927734375,353.5768432617188,342.0946044921875,13.11210155487061,1757483.263100542,-0.0722808837890625,0.8171844482421875,-0.055908203125,1757483.234468542,2.181881904602051,-2.038684606552124,-3.36940336227417,1757483.233714542,-132.7108001708984,111.5213317871094,-259.9072875976562,1757483.250651542,0.01665574479515658,1.29829748764568,-1.237875333855105,1.822360992431641,-2.450441122055054,-2.260085105895996,-0.2356912195682526,-0.1949084997177124,-0.007884204387664795,2,-0.4662470946132167,0.4885034025420602,-0.3453020836681596,0.651724485831518,0.3147470653057098,0.9450917840003967,-0.08795614540576935,9.975326538085938,38.80554962158203,21.44757080078125,-1,2,1757468.787300875,4,2,1676820287.871968,0,0,0,0,0,0,0,0,0,1757480.263464,0,-0.06607056,99.09062,1676820299.263031,0,182416158,0,0,1,1676820299.235293,1,0.82,1
1676820302.383592,94,1676820302.132477,34.04827612845974,-117.8136159508318,217.3687,1.027614,1.331321,16.37998118887383,50.02027998453536,9.747765245857371,17.75714029013245,-9999,1676820302.363809,9.296432495117188,40.36194610595703,18.56143188476562,352.98193359375,341.4996948242188,13.11203002929688,1757483.296710542,-0.1465911865234375,0.81427001953125,-0.02227783203125,1757483.268079542,1.5917649269104,-2.380698204040527,-0.8989796042442322,1757483.293776542,-133.1767425537109,114.7269439697266,-266.451416015625,1757483.250651542,0.01665574479515658,1.29829748764568,-1.237875333855105,1.822360992431641,-2.450441122055054,-2.260085105895996,-0.2356912195682526,-0.1949084997177124,-0.007884204387664795,2,-0.4662470946132167,0.4885034025420602,-0.3453020836681596,0.651724485831518,0.3147470653057098,0.9450917840003967,-0.08795614540576935,9.975326538085938,38.80554962158203,21.44757080078125,-1,2,1757468.787300875,4,2,1676820287.871968,0,0,0,0,0,0,0,0,0,1757480.263464,0,-0.06607056,99.09062,1676820299.263031,0,182416158,0,0,1,1676820299.235293,1,0.82,1
1676820302.41839,95,1676820302.132477,34.04827612845974,-117.8136159508318,217.3687,1.027614,1.331321,16.37998118887383,50.02027998453536,9.747765245857371,17.75714029013245,-9999,1676820302.403945,10.84249877929688,41.11151885986328,14.9876708984375,349.2341613769531,337.7519226074219,13.11231803894043,1757483.330320542,0.41754150390625,1.045242309570312,-0.313507080078125,1757483.301689542,1.806135296821594,-1.522708177566528,1.0385662317276,1757483.323807542,-131.3096313476562,115.3628082275391,-268.489501953125,1757483.310403542,-0.2535699608652733,0.9207337003492747,-1.203445117297454,1.916464567184448,-1.373879909515381,1.258103489875793,-0.3706125617027283,-0.09786313772201538,0.1719116717576981,2,-0.4567497066537612,0.4274294731648075,-0.3428548825321773,0.7008098137901234,0.2858957946300507,0.9332818984985352,-0.2173675000667572,10.271484375,41.22998046875,15.92376708984375,-1,2,1757468.787300875,4,2,1676820287.871968,0,0,0,0,0,0,0,0,0,1757480.263464,0,-0.06607056,99.09062,1676820299.263031,0,182416158,0,0,1,1676820299.235293,1,0.82,1
1676820302.453199,96,1676820302.132477,34.04827612845974,-117.8136159508318,217.3687,1.027614,1.331321,16.37998118887383,50.02027998453536,9.747765245857371,17.75714029013245,-9999,1676820302.443483,12.69929504394531,42.08436584472656,10.96881103515625,345.9748229980469,334.4925842285156,13.11269855499268,1757483.363930542,0.673248291015625,1.238601684570312,-0.8861083984375,1757483.335299542,1.793244242668152,-2.19023323059082,0.2985688447952271,1757483.353837542,-130.2938842773438,115.7840423583984,-271.849853515625,1757483.310403542,-0.2535699608652733,0.9207337003492747,-1.203445117297454,1.916464567184448,-1.373879909515381,1.258103489875793,-0.3706125617027283,-0.09786313772201538,0.1719116717576981,2,-0.4567497066537612,0.4274294731648075,-0.3428548825321773,0.7008098137901234,0.2858957946300507,0.9332818984985352,-0.2173675000667572,10.271484375,41.22998046875,15.92376708984375,-1,2,1757468.787300875,4,2,1676820287.871968,0,0,0,0,0,0,0,0,0,1757480.263464,0,-0.06607056,99.09062,1676820299.263031,0,182416158,0,0,1,1676820299.235293,1,0.82,1
1676820302.483406,97,1676820302.132477,34.04827612845974,-117.8136159508318,217.3687,1.027614,1.331321,16.37998118887383,50.02027998453536,9.747765245857371,17.75714029013245,-9999,1676820302.463716,11.96890258789062,42.52893829345703,10.63998413085938,345.9290466308594,334.4468078613281,13.1124153137207,1757483.397541542,0.2261810302734375,0.896514892578125,-0.387237548828125,1757483.368909542,-0.4552463591098785,-2.007498025894165,-1.767307758331299,1757483.383868542,-132.1461639404297,115.8718872070312,-271.5578002929688,1757483.370154542,-0.4138724347715705,0.6402212830260573,-1.157196489937563,-0.5019035935401917,-1.910315990447998,-1.798038959503174,0.4010851383209229,0.2996826767921448,-0.507243275642395,2,-0.4538671729098518,0.3644812956043957,-0.3316878965272765,0.7423888823262134,0.2400892227888107,0.915679931640625,-0.3223159611225128,12.41900634765625,42.20839691162109,10.64752197265625,-1,2,1757468.787300875,4,2,1676820287.871968,0,0,0,0,0,0,0,0,0,1757480.263464,0,-0.06607056,99.09062,1676820299.263031,0,182416158,0,0,1,1676820299.235293,1,0.82,1
1676820302.518001,98,1676820302.132477,34.04827612845974,-117.8136159508318,217.3687,1.027614,1.331321,16.37998118887383,50.02027998453536,9.747765245857371,17.75714029013245,-9999,1676820302.503653,8.995758056640625,42.41669464111328,12.00527954101562,348.7079467773438,337.2257080078125,13.10978031158447,1757483.431151542,0.2949981689453125,0.9087371826171875,-0.3575897216796875,1757483.402520542,-1.199563145637512,-0.3495406806468964,-1.749824404716492,1757483.413899542,-134.3024291992188,116.0335388183594,-270.1932983398438,1757483.370154542,-0.4138724347715705,0.6402212830260573,-1.157196489937563,-0.5019035935401917,-1.910315990447998,-1.798038959503174,0.4010851383209229,0.2996826767921448,-0.507243275642395,2,-0.4538671729098518,0.3644812956043957,-0.3316878965272765,0.7423888823262134,0.2400892227888107,0.915679931640625,-0.3223159611225128,12.41900634765625,42.20839691162109,10.64752197265625,-1,2,1757468.787300875,4,2,1676820287.871968,0,0,0,0,0,0,0,0,0,1757480.263464,0,-0.06607056,99.09062,1676820299.263031,0,182416158,0,0,1,1676820299.235293,1,0.82,1
1676820302.553125,99,1676820302.132477,34.04827612845974,-117.8136159508318,217.3687,1.027614,1.331321,16.37998118887383,50.02027998453536,9.747765245857371,17.75714029013245,-9999,1676820302.543545,5.817535400390625,42.37241363525391,13.54794311523438,352.6507568359375,341.1685180664062,13.10735416412354,1757483.464761542,0.532073974609375,1.145889282226562,-0.3028411865234375,1757483.436130542,-1.319793939590454,0.1529794335365295,-1.761532425880432,1757483.443928542,-136.6637878417969,116.513427734375,-269.260498046875,1757483.429906542,-0.580961068820386,0.4495582734741151,-1.267884206799806,-1.355416297912598,0.04951590299606323,-1.736558437347412,0.1438969522714615,-0.05656832456588745,-0.1150051057338715,2,-0.5017992512231509,0.3374412688771595,-0.3514501193252138,0.7147124064365814,0.1296321153640747,0.9544718265533447,-0.2686617970466614,7.920623779296875,42.71216583251953,12.05038452148438,-1,2,1757468.787300875,4,2,1676820287.871968,0,0,0,0,0,0,0,0,0,1757480.263464,0,-0.06607056,99.09062,1676820299.263031,0,182416158,0,0,1,1676820299.235293,1,0.82,1
1676820302.587764,100,1676820302.132477,34.04827612845974,-117.8136159508318,217.3687,1.027614,1.331321,16.37998118887383,50.02027998453536,9.747765245857371,17.75714029013245,-9999,1676820302.583045,2.472824096679688,42.42710876464844,15.19662475585938,358.1184997558594,346.6362609863281,13.10661697387695,1757483.498371542,0.8447723388671875,1.71014404296875,-0.27178955078125,1757483.469740542,-1.053853273391724,0.5015336871147156,-1.966310858726501,1757483.473957542,-139.205810546875,115.9905700683594,-267.3913879394531,1757483.489657542,-0.9395875695789725,0.1263291248856903,-1.366881433491545,-0.889263927936554,0.9085867404937744,-1.924589157104492,0.7592604160308838,0.5825475454330444,-0.1038411557674408,2,-0.5397720587867387,0.3289378178593756,-0.3858686507521853,0.6719759798949176,0.02551439218223095,0.9792813062667847,-0.2008920758962631,3.220199584960938,42.43278503417969,15.00497436523438,-1,2,1757468.787300875,4,2,1676820287.871968,0,0,0,0,0,0,0,0,0,1757480.263464,0,-0.06607056,99.09062,1676820299.263031,0,182416158,0,0,1,1676820299.235293,1,0.82,1
1676820302.617585,101,1676820302.132477,34.04827612845974,-117.8136159508318,217.3687,1.027614,1.331321,16.37998118887383,50.02027998453536,9.747765245857371,17.75714029013245,-9999,1676820302.602987,0.794097900390625,42.02320098876953,15.5096435546875,0.8373165130615234,349.3550720214844,13.10682201385498,1757483.531982542,0.5965728759765625,0.98419189453125,-0.088470458984375,1757483.503350542,-0.7059699296951294,1.149729013442993,-1.541709780693054,1757483.503987542,-141.9685821533203,115.7628479003906,-266.9219665527344,1757483.489657542,-0.9395875695789725,0.1263291248856903,-1.366881433491545,-0.889263927936554,0.9085867404937744,-1.924589157104492,0.7592604160308838,0.5825475454330444,-0.1038411557674408,2,-0.5397720587867387,0.3289378178593756,-0.3858686507521853,0.6719759798949176,0.02551439218223095,0.9792813062667847,-0.2008920758962631,3.220199584960938,42.43278503417969,15.00497436523438,-1,2,1757468.787300875,4,2,1676820287.871968,0,0,0,0,0,0,0,0,0,1757480.263464,0,-0.06607056,99.09062,1676820299.263031,0,182416158,0,0,1,1676820299.235293,1,0.82,1
1676820302.652434,102,1676820302.132477,34.04827612845974,-117.8136159508318,217.3687,1.027614,1.331321,16.37998118887383,50.02027998453536,9.747765245857371,17.75714029013245,-9999,1676820302.642917,-0.50799560546875,41.78458404541016,16.14434814453125,3.636541366577148,352.154296875,13.10723400115967,1757483.565592542,0.4101104736328125,0.8046112060546875,0.1044921875,1757483.536961542,-0.2956375181674957,0.8131123185157776,-0.4615897238254547,1757483.564045542,-143.3851165771484,115.90966796875,-266.3729858398438,1757483.549409542,-1.258554053194137,-0.1308837294100565,-1.397708197696142,-0.2171759158372879,0.6991698145866394,-0.2366643995046616,0.5855265855789185,-0.1447102427482605,0.2305519729852676,2,-0.5484639763238568,0.337358737471163,-0.4156127500904749,0.6423725681143588,-0.02247724682092667,0.9850575923919678,-0.1707527041435242,-0.2369842529296875,42.0047607421875,16.47158813476562,-1,2,1757468.787300875,4,2,1676820287.871968,0,0,0,0,0,0,0,0,0,1757480.263464,0,-0.06607056,99.09062,1676820299.263031,0,182416158,0,0,1,1676820299.235293,1,0.82,1
1676820302.690337,103,1676820302.132477,34.04827612845974,-117.8136159508318,217.3687,1.027614,1.331321,16.37998118887383,50.02027998453536,9.747765245857371,17.75714029013245,-9999,1676820302.682657,1.9129638671875,41.35730743408203,18.47650146484375,356.9877014160156,345.5054626464844,13.10785388946533,1757483.599202542,-0.136199951171875,0.791229248046875,0.8862152099609375,1757483.570571542,-1.162864208221436,-2.229978799819946,0.4260746240615845,1757483.594076542,-140.8190765380859,114.9258575439453,-263.6155700683594,1757483.549409542,-1.258554053194137,-0.1308837294100565,-1.397708197696142,-0.2171759158372879,0.6991698145866394,-0.2366643995046616,0.5855265855789185,-0.1447102427482605,0.2305519729852676,2,-0.5484639763238568,0.337358737471163,-0.4156127500904749,0.6423725681143588,-0.02247724682092667,0.9850575923919678,-0.1707527041435242,-0.2369842529296875,42.0047607421875,16.47158813476562,-1,2,1757468.787300875,4,2,1676820287.871968,0,0,0,0,0,0,0,0,0,1757480.263464,0,-0.06607056,99.09062,1676820299.263031,0,182416158,0,0,1,1676820299.235293,1,0.82,1
1676820302.72378,104,1676820302.132477,34.04827612845974,-117.8136159508318,217.3687,1.027614,1.331321,16.37998118887383,50.02027998453536,9.747765245857371,17.75714029013245,-9999,1676820302.722441,7.873138427734375,39.19573974609375,20.62326049804688,346.4340515136719,334.9518127441406,13.10844230651855,1757483.632812542,-0.204742431640625,1.164337158203125,0.0606231689453125,1757483.604181542,-1.620523691177368,-1.564359426498413,3.042293310165405,1757483.624106542,-136.0075378417969,113.3958129882812,-262.0943603515625,1757483.609161542,-0.635726541147709,0.3600753535430329,-1.483650382600415,-1.475215315818787,-0.9400950074195862,3.442225217819214,-0.2263612747192383,-0.1698499917984009,1.005146980285645,2,-0.5901558027853794,0.3331486901413902,-0.341612380208308,0.651175297349983,0.03066733852028847,0.99620521068573,-0.08145615458488464,3.249710083007812,40.81463623046875,19.21035766601562,-1,2,1757468.787300875,4,2,1676820287.871968,0,0,0,0,0,0,0,0,0,1757480.263464,0,-0.06607056,99.09062,1676820299.263031,0,182416158,0,0,1,1676820299.235293,1,0.82,1
1676820302.752208,105,1676820302.132477,34.04827612845974,-117.8136159508318,217.3687,1.027614,1.331321,16.37998118887383,50.02027998453536,9.747765245857371,17.75714029013245,-9999,1676820302.742501,10.99580383300781,37.848876953125,21.70919799804688,341.0157470703125,329.5335083007812,13.10879135131836,1757483.666423542,0.1688232421875,1.490585327148438,-0.1726226806640625,1757483.637791542,-2.143550157546997,0.02711657248437405,4.571591854095459,1757483.654132542,-131.3560638427734,111.1246795654297,-260.4345703125,1757483.609161542,-0.635726541147709,0.3600753535430329,-1.483650382600415,-1.475215315818787,-0.9400950074195862,3.442225217819214,-0.2263612747192383,-0.1698499917984009,1.005146980285645,2,-0.5901558027853794,0.3331486901413902,-0.341612380208308,0.651175297349983,0.03066733852028847,0.99620521068573,-0.08145615458488464,3.249710083007812,40.81463623046875,19.21035766601562,-1,2,1757468.787300875,4,2,1676820287.871968,0,0,0,0,0,0,0,0,0,1757480.263464,0,-0.06607056,99.09062,1676820299.263031,0,182416158,0,0,1,1676820299.235293,1,0.82,1
1676820302.786828,106,1676820302.132477,34.04827612845974,-117.8136159508318,217.3687,1.027614,1.331321,16.37998118887383,50.02027998453536,9.747765245857371,17.75714029013245,-9999,1676820302.782344,16.58518981933594,33.46104431152344,24.89083862304688,329.5868530273438,318.1046142578125,13.10952663421631,1757483.700033542,0.4240570068359375,1.183822631835938,-0.08477783203125,1757483.671402542,-2.524181842803955,-0.3518850803375244,3.970069646835327,1757483.684158542,-127.4672088623047,107.9753875732422,-257.8394165039062,1757483.668912542,0.7418081195973716,1.715053609127436,-1.286577733234501,-2.538888931274414,-0.3013797402381897,3.965930700302124,-0.09690812230110168,0.5265846252441406,-0.2071959972381592,2,-0.5851016910636531,0.4216769235811243,-0.2330037338666424,0.6523451172632138,0.2774960100650787,0.959881067276001,0.04031083360314369,12.10334777832031,36.62807464599609,22.307373046875,-1,2,1757468.787300875,4,2,1676820287.871968,0,0,0,0,0,0,0,0,0,1757480.263464,0,-0.06607056,99.09062,1676820299.263031,0,182416158,0,0,1,1676820299.235293,1,0.82,1
1676820302.821752,107,1676820302.132477,34.04827612845974,-117.8136159508318,217.3687,1.027614,1.331321,16.37998118887383,50.02027998453536,9.747765245857371,17.75714029013245,-9999,1676820302.802031,18.12327575683594,31.50649261474609,26.50390625,325.029052734375,313.5468139648438,13.10982990264893,1757483.733643542,0.20135498046875,1.247802734375,0.391876220703125,1757483.705012542,-2.388982057571411,-0.4402610063552856,2.339951276779175,1757483.714185542,-124.6333618164062,104.7739105224609,-255.5103607177734,1757483.728664542,0.9639914727232378,1.896401984576375,-1.082898424382648,-0.866192638874054,-0.0220228023827076,2.254962205886841,-0.3064752221107483,0.3114432096481323,0.3578000068664551,2,-0.5890084356591452,0.4775404537055659,-0.139326558938036,0.6368771890485708,0.4441401958465576,0.8833202123641968,0.1499516516923904,18.81803131103516,30.73523712158203,26.97564697265625,-1,2,1757468.787300875,4,2,1676820287.871968,0,0,0,0,0,0,0,0,0,1757480.263464,0,-0.06607056,99.09062,1676820299.263031,0,182416158,0,0,1,1676820299.235293,1,0.82,1
1676820302.856783,108,1676820302.132477,34.04827612845974,-117.8136159508318,217.3687,1.027614,1.331321,16.37998118887383,50.02027998453536,9.747765245857371,17.75714029013245,-9999,1676820302.842137,20.13166809082031,29.34326934814453,27.90159606933594,319.4955749511719,308.0133361816406,13.11036396026611,1757483.767253542,0.2505340576171875,1.006591796875,0.0372314453125,1757483.738622542,-0.4461820125579834,0.3869373202323914,2.26748251914978,1757483.744211542,-122.9252471923828,103.1957397460938,-254.5609130859375,1757483.728664542,0.9639914727232378,1.896401984576375,-1.082898424382648,-0.866192638874054,-0.0220228023827076,2.254962205886841,-0.3064752221107483,0.3114432096481323,0.3578000068664551,2,-0.5890084356591452,0.4775404537055659,-0.139326558938036,0.6368771890485708,0.4441401958465576,0.8833202123641968,0.1499516516923904,18.81803131103516,30.73523712158203,26.97564697265625,-1,2,1757468.787300875,4,2,1676820287.871968,0,0,0,0,0,0,0,0,0,1757480.263464,0,-0.06607056,99.09062,1676820299.263031,0,182416158,0,0,1,1676820299.235293,1,0.82,1
1676820302.892729,109,1676820302.132477,34.04827612845974,-117.8136159508318,217.3687,1.027614,1.331321,16.37998118887383,50.02027998453536,9.747765245857371,17.75714029013245,-9999,1676820302.882104,21.21654510498047,28.50044250488281,27.59109497070312,318.1100463867188,306.6278076171875,13.1109037399292,1757483.800864542,0.3108978271484375,0.910247802734375,-0.0191497802734375,1757483.772232542,0.7097423076629639,1.050496101379395,2.074482917785645,1757483.774235542,-121.941650390625,102.150390625,-254.8020629882812,1757483.788415542,0.8659026641886038,1.85920024668191,-0.9657438799505297,1.232762336730957,0.9034835696220398,1.92594313621521,-0.2763617038726807,0.1288827657699585,-0.1770396530628204,2,-0.5498902717508986,0.5277415926895695,-0.1155040620802372,0.6369995136718459,0.5453131794929504,0.8224722743034363,0.1617809981107712,20.95978546142578,28.62796783447266,28.00730895996094,-1,2,1757468.787300875,4,2,1676820287.871968,0,0,0,0,0,0,0,0,0,1757480.263464,0,-0.06607056,99.09062,1676820299.263031,0,182416158,0,0,1,1676820299.235293,1,0.82,1
1676820302.927915,110,1676820302.132477,34.04827612845974,-117.8136159508318,217.3687,1.027614,1.331321,16.37998118887383,50.02027998453536,9.747765245857371,17.75714029013245,-9999,1676820302.921629,22.32295989990234,28.09013366699219,27.40374755859375,316.7916564941406,305.3094177246094,13.11140441894531,1757483.834474542,0.276824951171875,0.7678985595703125,-0.109710693359375,1757483.805843542,1.074393153190613,0.5665486454963684,1.755290269851685,1757483.834286542,-120.5188293457031,101.7175903320312,-254.7803497314453,1757483.788415542,0.8659026641886038,1.85920024668191,-0.9657438799505297,1.232762336730957,0.9034835696220398,1.92594313621521,-0.2763617038726807,0.1288827657699585,-0.1770396530628204,2,-0.5498902717508986,0.5277415926895695,-0.1155040620802372,0.6369995136718459,0.5453131794929504,0.8224722743034363,0.1617809981107712,20.95978546142578,28.62796783447266,28.00730895996094,-1,2,1757468.787300875,4,2,1676820287.871968,0,0,0,0,0,0,0,0,0,1757480.263464,0,-0.06607056,99.09062,1676820299.263031,0,182416158,0,0,1,1676820299.235293,1,0.82,1
