loggingTime,loggingSample,locationTimestamp_since1970,locationLatitude,locationLongitude,locationAltitude,locationSpeed,locationSpeedAccuracy,locationCourse,locationCourseAccuracy,locationVerticalAccuracy,locationHorizontalAccuracy,locationFloor,locationHeadingTimestamp_since1970,locationHeadingX,locationHeadingY,locationHeadingZ,locationTrueHeading,locationMagneticHeading,locationHeadingAccuracy,accelerometerTimestamp_sinceReboot,accelerometerAccelerationX,accelerometerAccelerationY,accelerometerAccelerationZ,gyroTimestamp_sinceReboot,gyroRotationX,gyroRotationY,gyroRotationZ,magnetometerTimestamp_sinceReboot,magnetometerX,magnetometerY,magnetometerZ,motionTimestamp_sinceReboot,motionYaw,motionRoll,motionPitch,motionRotationRateX,motionRotationRateY,motionRotationRateZ,motionUserAccelerationX,motionUserAccelerationY,motionUserAccelerationZ,motionAttitudeReferenceFrame,motionQuaternionX,motionQuaternionY,motionQuaternionZ,motionQuaternionW,motionGravityX,motionGravityY,motionGravityZ,motionMagneticFieldX,motionMagneticFieldY,motionMagneticFieldZ,motionHeading,motionMagneticFieldCalibrationAccuracy,activityTimestamp_sinceReboot,activity,activityActivityConfidence,activityActivityStartDate,pedometerStartDate,pedometerNumberofSteps,pedometerAverageActivePace,pedometerCurrentPace,pedometerCurrentCadence,pedometerDistance,pedometerFloorAscended,pedometerFloorDescended,pedometerEndDate,altimeterTimestamp_sinceReboot,altimeterReset,altimeterRelativeAltitude,altimeterPressure,IP_Timestamp_since1970,IP_en0,IP_pdp_ip0,deviceID,deviceOrientationTimeStamp_since1970,deviceOrientation,batteryTimeStamp_since1970,batteryState,batteryLevel,label
1676829319.871993,1,1676829319.00097,34.05293395901629,-117.819872580386,218.0782,0,1.170242,13.7926553448542,180,3.232191381275162,4.835025946941691,-9999,1676829319.864417,-8.450515747070312,9.075546264648438,-44.08837890625,27.15918731689453,15.67696094512939,12.21907234191895,1764233.238328292,0.106689453125,-0.3905487060546875,-0.9450836181640625,1764233.233349292,-0.5017688274383545,0.08337318897247314,0.5606300234794617,1764233.223002292,-149.3896026611328,84.03399658203125,-326.2562561035156,1764233.193510292,-0.8133072031741793,0.1046172749266004,0.4073998032237766,-0.6402295827865601,0.8223998546600342,0.509422779083252,0.04503520578145981,-0.01777809858322144,0.02673596143722534,2,0.2057958730225178,-0.03287748849683113,-0.3771160637655238,0.9024137000660197,0.09587966650724411,-0.3962232768535614,-0.9131342768669128,-9.357742309570312,7.971435546875,-44.23782348632812,-1,2,1764233.062791292,1,2,1676829319.681582,1676828598.712269,1215,0.7487738,0,0,935.7173,0,1,1676829315.85709,1764230.493732,0,1.98703,99.14559,0,0,0,0,0,1,1676829319.851255,1,0.55,1
1676829319.928947,2,1676829319.00097,34.05293395901629,-117.819872580386,218.0782,0,1.170242,13.7926553448542,180,3.232191381275162,4.835025946941691,-9999,1676829319.924258,-9.606948852539062,9.121780395507812,-43.83505249023438,26.91912651062012,15.43690013885498,12.21218585968018,1764233.298082542,-0.0041351318359375,-0.323089599609375,-0.9113006591796875,1764233.293102542,0.1359439790248871,-0.4690495133399963,0.7188338041305542,1764233.283052542,-150.4110260009766,84.23890686035156,-326.329833984375,1764233.253264542,-0.7866086896757035,0.1078299184806256,0.376109755996524,0.04317675158381462,-0.632925271987915,0.3170080482959747,-0.004059627652168274,0.01278227567672729,-0.02264338731765747,2,0.1927119689390288,-0.02264571018521638,-0.3666335989963074,0.9099060769838081,0.1000984236598015,-0.3673049509525299,-0.924698531627655,-8.619705200195312,9.612045288085938,-43.93359375,-1,2,1764233.062791292,1,2,1676829319.681582,1676828598.712269,1215,0.7487738,0,0,935.7173,0,1,1676829315.85709,1764230.493732,0,1.98703,99.14559,1676829319.880009,0,182416158,0,0,1,1676829319.851255,1,0.55,1
1676829319.98882,3,1676829319.00097,34.05293395901629,-117.819872580386,218.0782,0,1.170242,13.7926553448542,180,3.232191381275162,4.835025946941691,-9999,1676829319.983979,-8.065322875976562,9.900886535644531,-43.21426391601562,23.00734710693359,11.52512168884277,12.20554351806641,1764233.357839542,0.11773681640625,-0.3397674560546875,-0.8709564208984375,1764233.352860542,-0.9238892197608948,0.3111128807067871,1.600522756576538,1764233.343105542,-149.0343475341797,84.97746276855469,-326.0816650390625,1764233.313021542,-0.7626095594199696,0.06050353091291703,0.3866185308664835,-0.1024675741791725,0.1729195415973663,1.157230854034424,-0.03351210057735443,0.07954287528991699,0.05048644542694092,2,0.1892750760232009,-0.04390477356833872,-0.3596400179772569,0.9126369836843518,0.05600354447960854,-0.3770586848258972,-0.9244946241378784,-9.452102661132812,9.355522155761719,-44.30783081054688,-1,2,1764233.062791292,1,2,1676829319.681582,1676828598.712269,1215,0.7487738,0,0,935.7173,0,1,1676829315.85709,1764230.493732,0,1.98703,99.14559,1676829319.880009,0,182416158,0,0,1,1676829319.851255,1,0.55,1
1676829320.051174,4,1676829319.00097,34.05293395901629,-117.819872580386,218.0782,0,1.170242,13.7926553448542,180,3.232191381275162,4.835025946941691,-9999,1676829320.043557,-6.77880859375,12.43631744384766,-42.35858154296875,18.47001457214355,6.987788200378418,12.20184516906738,1764233.417597542,0.0203704833984375,-0.241424560546875,-1.0076904296875,1764233.412617542,-0.7472763657569885,0.9115712642669678,0.6150663495063782,1764233.403161542,-147.8407440185547,87.31330871582031,-325.3239135742188,1764233.372779542,-0.6759500227269001,0.05051168130564339,0.3470251143147049,-1.263344526290894,0.027262132614851,1.643089294433594,0.06158940121531487,-0.07428109645843506,0.08368998765945435,2,0.1710721547134245,-0.03375952733853621,-0.3223812157002747,0.9304111865313791,0.04748041555285454,-0.3401017785072327,-0.9391891956329346,-7.840194702148438,10.80834197998047,-42.804931640625,-1,2,1764233.062791292,1,2,1676829319.681582,1676828598.712269,1215,0.7487738,0,0,935.7173,0,1,1676829315.85709,1764230.493732,0,1.98703,99.14559,1676829319.880009,0,182416158,0,0,1,1676829319.851255,1,0.55,1
1676829320.108446,5,1676829319.00097,34.05293395901629,-117.819872580386,218.0782,0,1.170242,13.7926553448542,180,3.232191381275162,4.835025946941691,-9999,1676829320.103444,-5.675308227539062,12.64022827148438,-42.26712036132812,18.2325325012207,6.750305652618408,12.20363521575928,1764233.477355542,-0.0753631591796875,-0.3509368896484375,-0.8616485595703125,1764233.472375542,-0.006783337332308292,-0.2416451126337051,0.1130253523588181,1764233.463222542,-146.2958679199219,87.71359252929688,-324.8348388671875,1764233.432536542,-0.6205086154889797,0.06666297044690901,0.2918783723175628,-0.2983139753341675,0.7965375185012817,-0.09173856675624847,0.1183479726314545,0.100495845079422,0.07557296752929688,2,0.1484678502685735,-0.01297581518124923,-0.2972727723445203,0.9430895131314614,0.06379618495702744,-0.2877516448497772,-0.9555778503417969,-5.640716552734375,12.63963317871094,-42.11898803710938,-1,2,1764233.062791292,1,2,1676829319.681582,1676828598.712269,1215,0.7487738,0,0,935.7173,0,1,1676829315.85709,1764230.493732,0,1.98703,99.14559,1676829319.880009,0,182416158,0,0,1,1676829319.851255,1,0.55,1
1676829320.170038,6,1676829319.00097,34.05293395901629,-117.819872580386,218.0782,0,1.170242,13.7926553448542,180,3.232191381275162,4.835025946941691,-9999,1676829320.162948,-5.236907958984375,13.60710144042969,-41.13388061523438,17.48830413818359,6.006077766418457,12.20528984069824,1764233.537112542,0.1184234619140625,-0.19732666015625,-0.874786376953125,1764233.532132542,-0.7313061356544495,0.02561428397893906,0.08043412119150162,1764233.523282542,-145.8800811767578,88.44953918457031,-323.94482421875,1764233.492294542,-0.6186661048402333,0.0643809714694125,0.2848099918793047,-0.2102522701025009,0.02017962373793125,0.2933996617794037,-0.1055984795093536,-0.08706682920455933,-0.01184719800949097,2,0.1448166257333792,-0.01283565467388829,-0.2968347549186399,0.9437969035355257,0.06174471229314804,-0.2809751033782959,-0.957726776599884,-5.436935424804688,13.07860565185547,-41.69515991210938,-1,2,1764233.062791292,1,2,1676829319.681582,1676828598.712269,1215,0.7487738,0,0,935.7173,0,1,1676829315.85709,1764230.493732,0,1.98703,99.14559,1676829319.880009,0,182416158,0,0,1,1676829319.851255,1,0.55,1
1676829320.22775,7,1676829320.000979,34.05293321500844,-117.8198579764626,217.8642,0,1.380374,13.79266197636514,180,3.222046083982326,4.841792649988535,-9999,1676829320.223052,-5.229904174804688,15.02188110351562,-40.82931518554688,18.24076652526855,6.758540153503418,12.20680809020996,1764233.596870542,0.22723388671875,-0.282318115234375,-0.896240234375,1764233.591890542,-0.4425446689128876,0.4596879780292511,-0.6684342622756958,1764233.583342542,-146.4676818847656,90.27247619628906,-323.7690734863281,1764233.552052542,-0.6082835929289232,0.06565062935163209,0.2503806050991422,-0.6428043842315674,0.1817111074924469,-0.07640162110328674,0.05677295476198196,0.03840692341327667,0.09826189279556274,2,0.1288203454379539,-0.006305218113674946,-0.2930608472599343,0.9473545827700846,0.06355784088373184,-0.2477727085351944,-0.9667311310768127,-4.989288330078125,14.028564453125,-41.056396484375,-1,2,1764233.062791292,1,2,1676829319.681582,1676828598.712269,1215,0.7487738,0,0,935.7173,0,1,1676829315.85709,1764230.493732,0,1.98703,99.14559,1676829319.880009,0,182416158,0,0,1,1676829319.851255,1,0.55,1
1676829320.288558,8,1676829320.000979,34.05293321500844,-117.8198579764626,217.8642,0,1.380374,13.79266197636514,180,3.222046083982326,4.841792649988535,-9999,1676829320.282593,-3.783065795898438,15.28778076171875,-40.575927734375,18.74075317382812,7.258525848388672,12.20799541473389,1764233.656627542,0.2359466552734375,-0.344390869140625,-0.6038665771484375,1764233.651648542,0.3720326721668243,1.010271191596985,0.332193911075592,1764233.643402542,-145.0580749511719,90.59275817871094,-323.4473876953125,1764233.611809542,-0.6347045137918667,0.09250559667320593,0.2181736150955955,-0.1067292392253876,0.4662079513072968,-0.4558845162391663,0.09871985018253326,-0.08648580312728882,0.1024912595748901,2,0.1176658838684236,0.009729426301769872,-0.3050831104165606,0.9449785090467347,0.09018394351005554,-0.2164468914270401,-0.9721201658248901,-5.360610961914062,15.53453063964844,-40.34378051757812,-1,2,1764233.062791292,1,2,1676829319.681582,1676828598.712269,1215,0.7487738,0,0,935.7173,0,1,1676829315.85709,1764230.493732,0,1.98703,99.14559,1676829319.880009,0,182416158,0,0,1,1676829319.851255,1,0.55,1
1676829320.347253,9,1676829320.000979,34.05293321500844,-117.8198579764626,217.8642,0,1.380374,13.79266197636514,180,3.222046083982326,4.841792649988535,-9999,1676829320.342618,-1.45733642578125,14.84918212890625,-39.80319213867188,17.62109375,6.13886833190918,12.20785999298096,1764233.716385542,0.34844970703125,-0.2315673828125,-0.8278350830078125,1764233.711405542,-0.1369727700948715,0.9609007239341736,0.02405260503292084,1764233.703462542,-142.4612274169922,89.76689147949219,-322.7188720703125,1764233.671567542,-0.6304028403921542,0.1426451721494167,0.2337055432267241,0.4318738877773285,1.398009419441223,0.2815738618373871,0.1934135556221008,-0.1403032392263412,0.3532390594482422,2,0.132502614446782,0.03123827860730022,-0.2992121656570457,0.9444253611209841,0.1382972300052643,-0.231583908200264,-0.9629344344139099,-3.117019653320312,15.08380126953125,-40.86166381835938,-1,2,1764233.062791292,1,2,1676829319.681582,1676828598.712269,1215,0.7487738,0,0,935.7173,0,1,1676829315.85709,1764230.493732,0,1.98703,99.14559,1676829319.880009,0,182416158,0,0,1,1676829319.851255,1,0.55,1
1676829320.409128,10,1676829320.000979,34.05293321500844,-117.8198579764626,217.8642,0,1.380374,13.79266197636514,180,3.222046083982326,4.841792649988535,-9999,1676829320.402091,-0.49859619140625,16.29224395751953,-39.0194091796875,18.1416187286377,6.6593918800354,12.20931529998779,1764233.776142542,0.361328125,-0.179901123046875,-1.100814819335938,1764233.771163542,-0.7871909737586975,0.4045639932155609,-0.4943327605724335,1764233.763522542,-141.5505523681641,91.48863220214844,-321.4578857421875,1764233.731324542,-0.6260695179465858,0.2074168000489177,0.2355962867766711,-0.5809897780418396,0.7104076743125916,-0.1688890904188156,0.1039552688598633,0.1154571771621704,0.07200169563293457,2,0.142872347279508,0.06181185254138305,-0.2925947659608175,0.9434803015233238,0.2002439349889755,-0.2334228456020355,-0.9515335559844971,-0.7024383544921875,15.12445068359375,-40.08209228515625,-1,2,1764233.062791292,1,2,1676829319.681582,1676828598.712269,1215,0.7487738,0,0,935.7173,0,1,1676829315.85709,1764230.493732,0,1.98703,99.14559,1676829319.880009,0,182416158,0,0,1,1676829319.851255,1,0.55,1
1676829320.466764,11,1676829320.000979,34.05293321500844,-117.8198579764626,217.8642,0,1.380374,13.79266197636514,180,3.222046083982326,4.841792649988535,-9999,1676829320.462016,-0.1349334716796875,17.71128082275391,-37.80569458007812,16.47131729125977,4.989090919494629,12.20920276641846,1764233.835900542,0.04150390625,-0.2583770751953125,-1.44622802734375,1764233.830920542,-1.027514696121216,-0.07721569389104843,1.054940462112427,1764233.823571542,-141.1697540283203,92.62568664550781,-320.4961242675781,1764233.791082542,-0.6369948438740706,0.2353887487025678,0.1860475278014186,-0.7454802989959717,0.1849295198917389,0.06866681575775146,0.005590632557868958,-0.09952399134635925,-0.1743622422218323,2,0.124218465997729,0.08214891186484714,-0.2992702734822897,0.9424747690496821,0.2291963398456573,-0.1849760860204697,-0.9556426405906677,-0.829345703125,17.01837158203125,-38.40951538085938,-1,2,1764233.062791292,1,2,1676829319.681582,1676828598.712269,1215,0.7487738,0,0,935.7173,0,1,1676829315.85709,1764230.493732,0,1.98703,99.14559,1676829319.880009,0,182416158,0,0,1,1676829319.851255,1,0.55,1
1676829320.529088,12,1676829320.000979,34.05293321500844,-117.8198579764626,217.8642,0,1.380374,13.79266197636514,180,3.222046083982326,4.841792649988535,-9999,1676829320.521621,0.42755126953125,19.88227844238281,-35.95803833007812,12.30193328857422,0.8197072148323059,12.21058464050293,1764233.895658542,0.009521484375,-0.04327392578125,-1.54608154296875,1764233.890678542,-1.417779564857483,-0.4201373755931854,0.9573028087615967,1764233.883626542,-140.7518157958984,94.5,-318.4921875,1764233.850839542,-0.5751977569129147,0.2275201177574537,0.142168399102382,-1.329256057739258,-0.06928248703479767,1.112703561782837,-0.1945390254259109,-0.04729007184505463,-0.5388197302818298,2,0.09978423922715679,0.0885617628140295,-0.2733742409439257,0.952610247974415,0.2232865691184998,-0.1416899710893631,-0.9643998146057129,-0.0073089599609375,18.56052398681641,-37.25564575195312,-1,2,1764233.062791292,1,2,1676829319.681582,1676828598.712269,1215,0.7487738,0,0,935.7173,0,1,1676829315.85709,1764230.493732,0,1.98703,99.14559,1676829319.880009,0,182416158,0,0,1,1676829319.851255,1,0.55,1
1676829320.586249,13,1676829320.000979,34.05293321500844,-117.8198579764626,217.8642,0,1.380374,13.79266197636514,180,3.222046083982326,4.841792649988535,-9999,1676829320.581558,-0.7493743896484375,21.29834747314453,-35.18218994140625,10.92552471160889,359.4432983398438,12.21252822875977,1764233.955415542,-0.0779876708984375,0.07879638671875,-1.229232788085938,1764233.950435542,-0.4013665914535522,-1.059832334518433,-0.2238599956035614,1764233.943684542,-141.4333190917969,95.90983581542969,-317.7345581054688,1764233.910597542,-0.4991753980532318,0.2023530748903241,0.07364405013934613,-1.114489078521729,-0.6972875595092773,0.6430649161338806,-0.1983855366706848,0.06413234770298004,-0.5123624205589294,2,0.06042210912264398,0.08876134246406682,-0.2419715930429443,0.9643237329073663,0.2004301995038986,-0.07357750087976456,-0.9769411683082581,0.2228240966796875,20.27797698974609,-35.42645263671875,-1,2,1764233.062791292,1,2,1676829319.681582,1676828598.712269,1215,0.7487738,0,0,935.7173,0,1,1676829315.85709,1764230.493732,0,1.98703,99.14559,1676829319.880009,0,182416158,0,0,1,1676829319.851255,1,0.55,1
1676829320.649347,14,1676829320.000979,34.05293321500844,-117.8198579764626,217.8642,0,1.380374,13.79266197636514,180,3.222046083982326,4.841792649988535,-9999,1676829320.641252,-2.443038940429688,21.50699615478516,-35.92709350585938,12.61264038085938,1.130413770675659,12.21450138092041,1764234.015173542,-0.13702392578125,-0.05450439453125,-1.045486450195312,1764234.010193542,0.5988040566444397,-0.7072271704673767,-0.513080894947052,1764234.003736542,-143.5715942382812,96.41065979003906,-318.5008850097656,1764233.970354542,-0.4929742357838758,0.1430272530522832,0.03911036896327896,-0.08190686255693436,-0.9584639072418213,-0.5075969099998474,-0.285634845495224,0.08818796277046204,-0.1832853555679321,2,0.03634549559892074,0.0645208775071934,-0.2419736173193149,0.9674527495040521,0.1424311101436615,-0.03910039737820625,-0.9890321493148804,-1.109695434570312,21.49821472167969,-35.47756958007812,-1,2,1764233.062791292,1,2,1676829319.681582,1676828598.712269,1215,0.7487738,0,0,935.7173,0,1,1676829315.85709,1764230.493732,0,1.98703,99.14559,1676829319.880009,0,182416158,0,0,1,1676829319.851255,1,0.55,1
1676829320.705655,15,1676829320.000979,34.05293321500844,-117.8198579764626,217.8642,0,1.380374,13.79266197636514,180,3.222046083982326,4.841792649988535,-9999,1676829320.700885,-4.039230346679688,19.94136810302734,-37.13616943359375,14.31088066101074,2.828654289245605,12.21647548675537,1764234.074930542,-0.0801544189453125,-0.1624755859375,-0.9282073974609375,1764234.069950542,1.036730289459229,-0.3305827081203461,-0.1711168885231018,1764234.063789542,-145.1619567871094,94.72709655761719,-319.726806640625,1764234.030112542,-0.5271694830982491,0.09836288872899367,0.05976563553582249,0.8761026859283447,-0.6573512554168701,-0.4933307766914368,-0.2302769422531128,-0.03195995464920998,-0.03523600101470947,2,0.04161456432554836,0.03966730410607696,-0.258693800878176,0.9642469498401459,0.0980290099978447,-0.05973006039857864,-0.9933894872665405,-3.030426025390625,21.37114715576172,-36.11688232421875,-1,2,1764233.062791292,1,2,1676829319.681582,1676828598.712269,1215,0.7487738,0,0,935.7173,0,1,1676829315.85709,1764231.494302,0,1.971176,99.14577,1676829319.880009,0,182416158,0,0,1,1676829319.851255,1,0.55,1
1676829320.768298,16,1676829320.000979,34.05293321500844,-117.8198579764626,217.8642,0,1.380374,13.79266197636514,180,3.222046083982326,4.841792649988535,-9999,1676829320.760547,-4.00030517578125,17.65982055664062,-39.39688110351562,14.42947483062744,2.947248220443726,12.21843147277832,1764234.134688542,0.0390777587890625,-0.2179107666015625,-0.844818115234375,1764234.129708542,1.24471116065979,0.4123228490352631,-0.05063468217849731,1764234.123849542,-144.9428253173828,92.47683715820312,-322.1221923828125,1764234.089870542,-0.548806338244151,0.07309906804225648,0.1181274271488614,1.094045639038086,-0.08148805052042007,-0.04659612849354744,-0.126678466796875,-0.04828474670648575,0.09207898378372192,2,0.06666742092928604,0.01912828626459903,-0.268243014919089,0.9608512565832739,0.0725250169634819,-0.1178528890013695,-0.9903791546821594,-4.277862548828125,19.41498565673828,-37.68618774414062,-1,2,1764233.062791292,1,2,1676829319.681582,1676828598.712269,1215,0.7487738,0,0,935.7173,0,1,1676829315.85709,1764231.494302,0,1.971176,99.14577,1676829319.880009,0,182416158,0,0,1,1676829319.851255,1,0.55,1
1676829320.825177,17,1676829320.000979,34.05293321500844,-117.8198579764626,217.8642,0,1.380374,13.79266197636514,180,3.222046083982326,4.841792649988535,-9999,1676829320.820549,-3.253662109375,15.58613586425781,-40.06439208984375,14.23319053649902,2.750963687896729,12.2203540802002,1764234.194445542,0.1628570556640625,-0.161712646484375,-0.781585693359375,1764234.189466542,0.7037395238876343,0.1929010152816772,-0.1084058359265327,1764234.183904542,-144.2915344238281,90.38560485839844,-322.4711608886719,1764234.149627542,-0.5556595580057204,0.09124803141190095,0.1899882773179256,1.099831819534302,0.3137717247009277,0.1427926570177078,-0.05783513188362122,-0.08150780200958252,0.04296928644180298,2,0.1035716708016631,0.0176737705947148,-0.2685885072159349,0.9575076129732478,0.08948186039924622,-0.1888473778963089,-0.9779210686683655,-3.838287353515625,17.05028533935547,-39.94638061523438,-1,2,1764233.062791292,1,2,1676829319.681582,1676828598.712269,1215,0.7487738,0,0,935.7173,0,1,1676829315.85709,1764231.494302,0,1.971176,99.14577,1676829319.880009,0,182416158,0,0,1,1676829319.851255,1,0.55,1
1676829320.889749,18,1676829320.000979,34.05293321500844,-117.8198579764626,217.8642,0,1.380374,13.79266197636514,180,3.222046083982326,4.841792649988535,-9999,1676829320.880138,-3.961563110351562,14.97259521484375,-41.07122802734375,15.77119541168213,4.288969039916992,12.22224617004395,1764234.254203875,0.0777740478515625,-0.364593505859375,-0.9049530029296875,1764234.249223542,-0.8233868479728699,-0.7179131507873535,-0.01291926112025976,1764234.243957542,-145.0866241455078,89.94535827636719,-323.8166198730469,1764234.209385542,-0.5636992364430957,0.1028670128854327,0.237783273144119,0.5045803785324097,-0.01473431847989559,-0.9131991267204285,0.1366233080625534,0.02545064687728882,0.2016341686248779,2,0.1279790759637705,0.0160875042782847,-0.2699468261760243,0.9541965856439145,0.09979637712240219,-0.2355488538742065,-0.9667251110076904,-2.937820434570312,15.05995941162109,-40.52325439453125,-1,2,1764233.062791292,1,2,1676829319.681582,1676828598.712269,1215,0.7487738,0,0,935.7173,0,1,1676829315.85709,1764231.494302,0,1.971176,99.14577,1676829319.880009,0,182416158,0,0,1,1676829319.851255,1,0.55,1
1676829320.944777,19,1676829320.000979,34.05293321500844,-117.8198579764626,217.8642,0,1.380374,13.79266197636514,180,3.222046083982326,4.841792649988535,-9999,1676829320.940058,-4.6435546875,16.54826354980469,-40.23434448242188,15.60091781616211,4.118691444396973,12.22410202026367,1764234.313960875,0.0910797119140625,-0.2044677734375,-0.8998870849609375,1764234.308981875,0.2279279679059982,0.2477618604898453,-0.09048542380332947,1764234.304011875,-145.6452331542969,91.58522033691406,-322.7630004882812,1764234.269142875,-0.5766480116059244,0.07259988802474908,0.2139862439176602,-0.6825135350227356,-0.270823210477829,0.1485186368227005,-0.04246988147497177,-0.1414638459682465,0.3033991456031799,2,0.1125740630525537,0.00424990760096592,-0.278817994164509,0.9537134872928434,0.07088173925876617,-0.21235691010952,-0.9746180176734924,-4.34478759765625,15.797119140625,-40.76544189453125,-1,2,1764233.062791292,1,2,1676829319.681582,1676828598.712269,1215,0.7487738,0,0,935.7173,0,1,1676829315.85709,1764231.494302,0,1.971176,99.14577,1676829319.880009,0,182416158,0,0,1,1676829319.851255,1,0.55,1
1676829321.011279,20,1676829320.000979,34.05293321500844,-117.8198579764626,217.8642,0,1.380374,13.79266197636514,180,3.222046083982326,4.841792649988535,-9999,1676829320.999599,-4.7384033203125,15.96861267089844,-40.39761352539062,15.85378456115723,4.371558666229248,12.22590255737305,1764234.373718875,0.13983154296875,-0.3431854248046875,-0.968780517578125,1764234.368738875,0.08235985040664673,0.03429672122001648,0.06703149527311325,1764234.364067875,-145.7839813232422,90.83329772949219,-323.1091003417969,1764234.328900875,-0.5787332765585678,0.07902490995775056,0.2115621976395804,0.1920521706342697,0.1830535680055618,-0.1795173436403275,0.0388147234916687,0.02405925095081329,-0.02696460485458374,2,0.1123240277034636,0.007543883578698417,-0.2795314170008591,0.953513828494152,0.0771825835108757,-0.2099875211715698,-0.9746528267860413,-4.618057250976562,16.31461334228516,-40.12295532226562,-1,2,1764234.337615875,1,2,1676829320.956407,1676828598.712269,1215,0.7487738,0,0,935.7173,0,1,1676829315.85709,1764231.494302,0,1.971176,99.14577,1676829319.880009,0,182416158,0,0,1,1676829319.851255,1,0.55,1
1676829321.064217,21,1676829320.000979,34.05293321500844,-117.8198579764626,217.8642,0,1.380374,13.79266197636514,180,3.222046083982326,4.841792649988535,-9999,1676829321.059593,-4.110565185546875,15.78429412841797,-40.60800170898438,15.96338558197021,4.481159210205078,12.22347545623779,1764234.433476875,0.0646209716796875,-0.312042236328125,-0.9777984619140625,1764234.428496875,0.1193239986896515,0.2179805338382721,0.1634533703327179,1764234.424122875,-145.1621246337891,90.74876403808594,-323.0946044921875,1764234.388657875,-0.5802750149575284,0.08175953919468094,0.2177403322345643,0.1498896032571793,0.000209675170481205,0.03692378103733063,0.07812728732824326,-0.112940326333046,0.01542389392852783,2,0.1156495200430849,0.007869871467325831,-0.2798976665206083,0.9530060351098062,0.07974012941122055,-0.216023862361908,-0.9731265306472778,-4.547271728515625,16.02313995361328,-40.47988891601562,-1,2,1764234.337615875,1,2,1676829320.956407,1676828598.712269,1215,0.7487738,0,0,935.7173,0,1,1676829315.85709,1764231.494302,0,1.971176,99.14577,1676829319.880009,0,182416158,0,0,1,1676829319.851255,1,0.55,1
1676829321.128777,22,1676829320.000979,34.05293321500844,-117.8198579764626,217.8642,0,1.380374,13.79266197636514,180,3.222046083982326,4.841792649988535,-9999,1676829321.119148,-3.420852661132812,16.16046142578125,-40.6226806640625,16.00846099853516,4.52623462677002,12.2166576385498,1764234.493233875,0.105010986328125,-0.2252349853515625,-1.0301513671875,1764234.488253875,-0.1635279506444931,0.02464835532009602,0.07991081476211548,1764234.484181875,-144.3970184326172,91.17230224609375,-323.1723022460938,1764234.448415875,-0.5841167323714209,0.08910904929596902,0.2259467331371383,-0.006191676948219538,0.1733932048082352,0.2188356220722198,-0.01542491465806961,-0.08114659786224365,-0.04818993806838989,2,0.1205945076882926,0.009955378100131598,-0.2809962039702693,0.9520499034474781,0.08672922849655151,-0.2240291386842728,-0.9707157015800476,-3.869705200195312,15.91089630126953,-40.86672973632812,-1,2,1764234.337615875,1,2,1676829320.956407,1676828598.712269,1215,0.7487738,0,0,935.7173,0,1,1676829315.85709,1764231.494302,0,1.971176,99.14577,1676829319.880009,0,182416158,0,0,1,1676829319.851255,1,0.55,1
1676829321.183711,23,1676829320.000979,34.05293321500844,-117.8198579764626,217.8642,0,1.380374,13.79266197636514,180,3.222046083982326,4.841792649988535,-9999,1676829321.158966,-3.35614013671875,16.09774017333984,-40.76205444335938,16.27985191345215,4.797625541687012,12.21203899383545,1764234.552991875,0.0546722412109375,-0.1897735595703125,-0.958953857421875,1764234.548011875,0.02222061716020107,0.2077782303094864,0.0306354071944952,1764234.544241875,-144.0338134765625,90.98191833496094,-323.316650390625,1764234.508173875,-0.5874648428483038,0.09124637869323941,0.2206569765582035,-0.1065254285931587,0.0254080705344677,0.06338559836149216,-0.03030150383710861,0.0002733469009399414,-0.02232390642166138,2,0.1184036071562827,0.01154346063699881,-0.2826605174556888,0.9518142403486691,0.08891051262617111,-0.2188707143068314,-0.9716946482658386,-3.586471557617188,15.93306732177734,-40.56039428710938,-1,2,1764234.337615875,1,2,1676829320.956407,1676828598.712269,1215,0.7487738,0,0,935.7173,0,1,1676829315.85709,1764231.494302,0,1.971176,99.14577,1676829319.880009,0,182416158,0,0,1,1676829319.851255,1,0.55,1
1676829321.248288,24,1676829321.000988,34.05293417877337,-117.819857019114,217.7264,0,1.417128,13.79266244237773,180,3.234168463954936,4.833703691740755,-9999,1676829321.238659,-2.805465698242188,15.95355987548828,-40.52102661132812,17.15885734558105,5.67663049697876,12.20348644256592,1764234.612748875,0.12139892578125,-0.23419189453125,-0.9740753173828125,1764234.607768875,0.4785495400428772,0.3931044042110443,-0.1340685933828354,1764234.604297875,-143.8128204345703,90.93826293945312,-323.1358642578125,1764234.567930875,-0.5962743635264652,0.09939132035843609,0.2219446169500447,0.2127763032913208,0.2770282626152039,-0.02974691614508629,-0.03037232905626297,0.02591313421726227,0.05827301740646362,2,0.120230367358133,0.01470173484398832,-0.2863142534108476,0.9504486823014807,0.09679382294416428,-0.2201269567012787,-0.9706570506095886,-3.140853881835938,16.60604858398438,-40.93606567382812,-1,2,1764234.337615875,1,2,1676829320.956407,1676828598.712269,1215,0.7487738,0,0,935.7173,0,1,1676829315.85709,1764231.494302,0,1.971176,99.14577,1676829319.880009,0,182416158,0,0,1,1676829319.851255,1,0.55,1
1676829321.303262,25,1676829321.000988,34.05293417877337,-117.819857019114,217.7264,0,1.417128,13.79266244237773,180,3.234168463954936,4.833703691740755,-9999,1676829321.298658,-2.19134521484375,16.05398559570312,-41.09454345703125,18.37529754638672,6.893070220947266,12.19764709472656,1764234.672506875,0.1357879638671875,-0.243316650390625,-0.944244384765625,1764234.667526875,-0.4624153077602386,0.006532201543450356,-0.2167538851499557,1764234.664351875,-143.0872039794922,91.08645629882812,-323.708740234375,1764234.627688875,-0.6169496642083906,0.12424301958911,0.2480609517707283,0.09580174088478088,0.2710508704185486,-0.2198329865932465,0.0001546591520309448,0.01592577993869781,-0.03075772523880005,2,0.1363493495493074,0.0212093302902376,-0.2933746395450695,0.9459864954206821,0.1201303601264954,-0.2455247342586517,-0.9619180560112,-2.263351440429688,15.53399658203125,-41.15463256835938,-1,2,1764234.337615875,1,2,1676829320.956407,1676828598.712269,1215,0.7487738,0,0,935.7173,0,1,1676829315.85709,1764231.494302,0,1.971176,99.14577,1676829319.880009,0,182416158,0,0,1,1676829319.851255,1,0.55,1
1676829321.363619,26,1676829321.000988,34.05293417877337,-117.819857019114,217.7264,0,1.417128,13.79266244237773,180,3.234168463954936,4.833703691740755,-9999,1676829321.358494,-1.80419921875,16.12771606445312,-40.90301513671875,19.35146331787109,7.869237899780273,12.19199562072754,1764234.732263875,0.1792449951171875,-0.1263427734375,-0.9191436767578125,1764234.727284875,0.4427260160446167,0.3625973761081696,-0.1600679606199265,1764234.724405875,-142.6216888427734,90.973876953125,-323.4848022460938,1764234.687445875,-0.6377918930512056,0.1320560871092538,0.228728597897613,-0.2077594250440598,0.1172665953636169,-0.1670653373003006,-0.01441270112991333,0.001870691776275635,0.1025604009628296,2,0.1286764288068931,0.02654498191506142,-0.3036418851073636,0.9436839250899718,0.1282432526350021,-0.2267394214868546,-0.9654754996299744,-2.253616333007812,16.20204925537109,-40.84133911132812,-1,2,1764234.337615875,1,2,1676829320.956407,1676828598.712269,1215,0.7487738,0,0,935.7173,0,1,1676829315.85709,1764231.494302,0,1.971176,99.14577,1676829319.880009,0,182416158,0,0,1,1676829319.851255,1,0.55,1
1676829321.422874,27,1676829321.000988,34.05293417877337,-117.819857019114,217.7264,0,1.417128,13.79266244237773,180,3.234168463954936,4.833703691740755,-9999,1676829321.418057,-1.638015747070312,15.34432983398438,-40.73529052734375,21.32403373718262,9.84180736541748,12.18649005889893,1764234.792021875,0.19915771484375,-0.2185211181640625,-0.9043121337890625,1764234.787041875,0.7022793292999268,0.3500448167324066,-0.5546190142631531,1764234.784458875,-142.5621032714844,90.20793151855469,-323.1332702636719,1764234.747203875,-0.6595668038817235,0.1515122243980475,0.2432731076619384,0.5032957196235657,0.3511987030506134,-0.3832855522632599,0.07509918510913849,0.1281487643718719,0.009301722049713135,2,0.1387972074469079,0.03189541387917989,-0.3118350974374169,0.9394024023387892,0.1464889347553253,-0.2408806383609772,-0.9594360589981079,-1.720428466796875,15.75322723388672,-40.73440551757812,-1,2,1764234.337615875,1,2,1676829320.956407,1676828598.712269,1215,0.7487738,0,0,935.7173,0,1,1676829315.85709,1764231.494302,0,1.971176,99.14577,1676829319.880009,0,182416158,0,0,1,1676829319.851255,1,0.55,1
1676829321.488261,28,1676829321.000988,34.05293417877337,-117.819857019114,217.7264,0,1.417128,13.79266244237773,180,3.234168463954936,4.833703691740755,-9999,1676829321.477761,-1.337417602539062,14.50739288330078,-41.75582885742188,22.96555709838867,11.48333072662354,12.18112564086914,1764234.851778875,0.2580413818359375,-0.2729644775390625,-0.9470977783203125,1764234.846799875,0.2868157923221588,0.2520612776279449,-0.2306515872478485,1764234.844516875,-142.2079620361328,89.45060729980469,-324.3634033203125,1764234.806960875,-0.7055923624686833,0.1814009530560207,0.2753255380978546,0.6893453001976013,0.3227555751800537,-0.3950650691986084,0.01371915638446808,0.0144597589969635,0.04414182901382446,2,0.1592472498304293,0.03697280675977984,-0.3291833572046159,0.9300063086002092,0.1736129820346832,-0.2718602418899536,-0.9465466737747192,-1.802108764648438,15.10143280029297,-41.0963134765625,-1,2,1764234.337615875,1,2,1676829320.956407,1676828598.712269,1215,0.7487738,0,0,935.7173,0,1,1676829315.85709,1764231.494302,0,1.971176,99.14577,1676829319.880009,0,182416158,0,0,1,1676829319.851255,1,0.55,1
1676829321.542261,29,1676829321.000988,34.05293417877337,-117.819857019114,217.7264,0,1.417128,13.79266244237773,180,3.234168463954936,4.833703691740755,-9999,1676829321.537672,-1.489898681640625,14.43598937988281,-41.52667236328125,24.24141693115234,12.75918960571289,12.17593288421631,1764234.911536875,0.24664306640625,-0.29888916015625,-0.9588165283203125,1764234.906556875,-0.4437942206859589,-0.1575691252946854,-0.1626440435647964,1764234.904569875,-142.3837432861328,89.441162109375,-323.9594116210938,1764234.866718875,-0.7339566432947257,0.2022556014505011,0.2952424054793299,0.02166914567351341,0.07804139703512192,-0.2856450378894806,0.08390477299690247,0.01594740152359009,-0.02643924951553345,2,0.1724191544880848,0.0407043669486823,-0.3392206839072298,0.9238744471166315,0.1921877413988113,-0.2909717857837677,-0.9372295737266541,-1.293792724609375,14.09951782226562,-41.84115600585938,-1,2,1764234.337615875,1,2,1676829320.956407,1676828598.712269,1215,0.7487738,0,0,935.7173,0,1,1676829315.85709,1764231.494302,0,1.971176,99.14577,1676829319.880009,0,182416158,0,0,1,1676829319.851255,1,0.55,1
1676829321.6082,30,1676829321.000988,34.05293417877337,-117.819857019114,217.7264,0,1.417128,13.79266244237773,180,3.234168463954936,4.833703691740755,-9999,1676829321.597293,-1.492080688476562,15.80838775634766,-40.98922729492188,24.59500312805176,13.11277675628662,12.17092609405518,1764234.971294875,0.285675048828125,-0.238616943359375,-0.861663818359375,1764234.966314875,-0.3469909727573395,0.2032700330018997,-0.03229322656989098,1764234.964624875,-142.457275390625,90.79008483886719,-323.4765930175781,1764234.926475875,-0.7500067222072802,0.1980788036446284,0.2740105687497948,-0.5227711200714111,-0.1095959395170212,-0.05721180886030197,0.04316030442714691,-0.03047654032707214,0.01477694511413574,2,0.1623401602004764,0.04136434288973682,-0.3484994448634752,0.9222162012311717,0.1894446462392807,-0.2705945372581482,-0.9438693523406982,-1.7486572265625,14.81260681152344,-41.70452880859375,-1,2,1764234.337615875,1,2,1676829320.956407,1676828598.712269,1215,0.7487738,0,0,935.7173,0,1,1676829315.85709,1764231.494302,0,1.971176,99.14577,1676829319.880009,0,182416158,0,0,1,1676829319.851255,1,0.55,1
1676829321.66183,31,1676829321.000988,34.05293417877337,-117.819857019114,217.7264,0,1.417128,13.79266244237773,180,3.234168463954936,4.833703691740755,-9999,1676829321.657156,-1.15106201171875,15.91555023193359,-40.84774780273438,25.04243469238281,13.56020736694336,12.16601943969727,1764235.031051875,0.27740478515625,-0.329620361328125,-0.8513946533203125,1764235.026071875,-0.03092356026172638,0.2332846522331238,0.05167784169316292,1764235.024676875,-142.2457580566406,90.84666442871094,-323.3135986328125,1764234.986233875,-0.7533504801934883,0.2041940051857455,0.2499933579368031,-0.2053460627794266,0.3214585483074188,-0.1204620078206062,0.1189552247524261,0.01119151711463928,0.1046531796455383,2,0.1525240940797513,0.04841578603034435,-0.3512448996624335,0.9225071002126342,0.1964744329452515,-0.2473975270986557,-0.9487846493721008,-1.66748046875,15.47240447998047,-41.08242797851562,-1,2,1764234.337615875,1,2,1676829320.956407,1676828598.712269,1215,0.7487738,0,0,935.7173,0,1,1676829315.85709,1764231.494302,0,1.971176,99.14577,1676829319.880009,0,182416158,0,0,1,1676829319.851255,1,0.55,1
1676829321.731361,32,1676829321.000988,34.05293417877337,-117.819857019114,217.7264,0,1.417128,13.79266244237773,180,3.234168463954936,4.833703691740755,-9999,1676829321.716778,-0.653778076171875,16.54891967773438,-40.47402954101562,24.69694519042969,13.21471977233887,12.16118240356445,1764235.090809875,0.179046630859375,-0.250701904296875,-0.8840484619140625,1764235.085829875,-0.4146544337272644,0.1340094655752182,0.1786392480134964,1764235.084728875,-141.6559448242188,91.5706787109375,-323.0861206054688,1764235.045990875,-0.7588931785816776,0.2202828073701247,0.2450948535718357,-0.1565691828727722,0.2045900672674179,0.1820384562015533,0.02943386137485504,-0.0741545706987381,0.09617781639099121,2,0.1532671937331479,0.05633012165693593,-0.3529201530320163,0.9212944013654009,0.2119754105806351,-0.2426483482122421,-0.9466721415519714,-0.9122161865234375,16.01337432861328,-40.78472900390625,-1,2,1764234.337615875,1,2,1676829320.956407,1676828598.712269,1215,0.7487738,0,0,935.7173,0,1,1676829315.85709,1764232.494881,0,1.952682,99.14599,1676829319.880009,0,182416158,0,0,1,1676829319.851255,1,0.55,1
1676829321.781387,33,1676829321.000988,34.05293417877337,-117.819857019114,217.7264,0,1.417128,13.79266244237773,180,3.234168463954936,4.833703691740755,-9999,1676829321.776713,0.2746429443359375,17.5621337890625,-40.15475463867188,24.09416198730469,12.61193466186523,12.15636920928955,1764235.150566875,0.1620330810546875,-0.2413787841796875,-0.9334869384765625,1764235.145586875,-0.3947497010231018,0.3658320307731628,0.1497775167226791,1764235.144784875,-140.6138305664062,92.64109802246094,-322.7574462890625,1764235.105748875,-0.7490889498381037,0.2257958897052477,0.2272788996759772,-0.4873309135437012,0.1166247129440308,0.2253715246915817,-0.08107015490531921,-0.03234787285327911,0.05825579166412354,2,0.1458120198362693,0.06295058087063041,-0.3492855916567364,0.9234585081425883,0.2181245684623718,-0.2253272384405136,-0.9495521783828735,-0.439239501953125,16.74996185302734,-39.83779907226562,-1,2,1764234.337615875,1,2,1676829320.956407,1676828598.712269,1215,0.7487738,0,0,935.7173,0,1,1676829315.85709,1764232.494881,0,1.952682,99.14599,1676829319.880009,0,182416158,0,0,1,1676829319.851255,1,0.55,1
1676829321.842841,34,1676829321.000988,34.05293417877337,-117.819857019114,217.7264,0,1.417128,13.79266244237773,180,3.234168463954936,4.833703691740755,-9999,1676829321.836215,0.8403778076171875,18.28962707519531,-39.68984985351562,24.04850769042969,12.56628131866455,12.15162086486816,1764235.210324875,0.2571868896484375,-0.2874603271484375,-0.9580078125,1764235.205344875,-0.1186757832765579,0.2130347788333893,-0.07081691175699234,1764235.204837875,-140.1470031738281,93.28045654296875,-322.19482421875,1764235.165506875,-0.738790840142076,0.238309750331838,0.2048759405056689,-0.2447592467069626,0.3591386675834656,0.0889873132109642,-0.03994621336460114,-0.05604521930217743,-0.004562735557556152,2,0.1373792926124582,0.07361454322077056,-0.3452764812890783,0.9254685790061563,0.2311235666275024,-0.203445702791214,-0.9514156579971313,0.359405517578125,17.49345397949219,-39.86126708984375,-1,2,1764234.337615875,1,2,1676829320.956407,1676828598.712269,1215,0.7487738,0,0,935.7173,0,1,1676829315.85709,1764232.494881,0,1.952682,99.14599,1676829319.880009,0,182416158,0,0,1,1676829319.851255,1,0.55,1
1676829321.900923,35,1676829321.000988,34.05293417877337,-117.819857019114,217.7264,0,1.417128,13.79266244237773,180,3.234168463954936,4.833703691740755,-9999,1676829321.896124,1.337738037109375,18.76890563964844,-39.27572631835938,24.5712776184082,13.08905124664307,12.14703178405762,1764235.270085875,0.3017578125,-0.314239501953125,-0.846466064453125,1764235.265105875,-0.4961783289909363,0.1355719417333603,-0.1216188445687294,1764235.264888875,-139.5736541748047,93.76589965820312,-321.8955078125,1764235.225263875,-0.7433323289011183,0.2532181735108228,0.1956259121824321,-0.2229434698820114,0.1922019720077515,-0.1308398395776749,0.004776373505592346,-0.1040965765714645,0.02062952518463135,2,0.1358995696164771,0.0819053322446025,-0.3470501381674885,0.9243261811202133,0.2457424104213715,-0.1943805515766144,-0.9496456384658813,0.8380279541015625,18.47032928466797,-39.40359497070312,-1,2,1764234.337615875,1,2,1676829320.956407,1676828598.712269,1215,0.7487738,0,0,935.7173,0,1,1676829315.85709,1764232.494881,0,1.952682,99.14599,1676829319.880009,0,182416158,0,0,1,1676829319.851255,1,0.55,1
1676829321.961167,36,1676829321.000988,34.05293417877337,-117.819857019114,217.7264,0,1.417128,13.79266244237773,180,3.234168463954936,4.833703691740755,-9999,1676829321.955767,2.913055419921875,19.84378051757812,-38.52981567382812,24.78593063354492,13.30370330810547,12.14211368560791,1764235.329843875,0.4574737548828125,-0.221832275390625,-0.2947845458984375,1764235.324863875,0.3667953014373779,1.870261907577515,-0.09940674901008606,1764235.324940875,-137.9190826416016,94.80787658691406,-321.0272827148438,1764235.285025875,-0.7492529705460574,0.2642987118611609,0.1699645470661481,-0.4671128392219543,0.4013868868350983,-0.1124516949057579,0.05164429545402527,-0.1196708977222443,0.1910215616226196,2,0.1263464857500585,0.09139496845624386,-0.3510168562261576,0.9232934129860602,0.2574682235717773,-0.169147402048111,-0.9513670802116394,1.44036865234375,19.32071685791016,-39.21109008789062,-1,2,1764234.337615875,1,2,1676829320.956407,1676828598.712269,1215,0.7487738,0,0,935.7173,0,1,1676829315.85709,1764232.494881,0,1.952682,99.14599,1676829319.880009,0,182416158,0,0,1,1676829319.851255,1,0.55,1
1676829322.020551,37,1676829321.000988,34.05293417877337,-117.819857019114,217.7264,0,1.417128,13.79266244237773,180,3.234168463954936,4.833703691740755,-9999,1676829322.015515,8.56475830078125,17.80826568603516,-36.98794555664062,26.35289573669434,14.8706693649292,12.13586044311523,1764235.389600875,0.74920654296875,-0.2258148193359375,-0.0866851806640625,1764235.384621875,2.821691751480103,3.904588460922241,-0.2694288194179535,1764235.384995875,-131.9233551025391,92.55216979980469,-319.2086181640625,1764235.344782875,-0.7642707213953558,0.3515694391513735,0.1753584828808325,1.270437479019165,2.612625122070312,-0.4116032719612122,0.2792872786521912,-0.04555529356002808,0.7078217267990112,2,0.1449616988915664,0.1294926867591593,-0.3515365082824268,0.9157727521759683,0.3390904068946838,-0.1744611412286758,-0.9244354963302612,4.27880859375,19.75237274169922,-38.1929931640625,-1,2,1764234.337615875,1,2,1676829320.956407,1676828598.712269,1215,0.7487738,0,0,935.7173,0,1,1676829315.85709,1764232.494881,0,1.952682,99.14599,1676829319.880009,0,182416158,0,0,1,1676829319.851255,1,0.55,1
1676829322.081313,38,1676829321.000988,34.05293417877337,-117.819857019114,217.7264,0,1.417128,13.79266244237773,180,3.234168463954936,4.833703691740755,-9999,1676829322.075256,17.92298889160156,11.97154235839844,-34.19454956054688,29.34430694580078,17.86208152770996,12.13725185394287,1764235.449358875,0.897857666015625,0.0120697021484375,-0.2023162841796875,1764235.444378875,3.668613195419312,5.132230758666992,-1.297743797302246,1764235.445049875,-122.555908203125,86.54621887207031,-316.3634033203125,1764235.404540875,-0.8551629697163794,0.5865150376395369,0.2962183755197766,3.433715581893921,4.856937408447266,-0.3413558304309845,0.2680519223213196,0.1405382752418518,0.8135072588920593,2,0.247107585683635,0.2015876693655009,-0.353804293986217,0.8792739875227398,0.5293570160865784,-0.2919053733348846,-0.7966005206108093,11.52511596679688,15.62467956542969,-36.88092041015625,-1,2,1764234.337615875,1,2,1676829320.956407,1676828598.712269,1215,0.7487738,0,0,935.7173,0,1,1676829315.85709,1764232.494881,0,1.952682,99.14599,1676829319.880009,0,182416158,0,0,1,1676829319.851255,1,0.55,1
1676829322.14002,39,1676829321.000988,34.05293417877337,-117.819857019114,217.7264,0,1.417128,13.79266244237773,180,3.234168463954936,4.833703691740755,-9999,1676829322.135036,23.63931274414062,12.63707733154297,-27.269775390625,38.16695022583008,26.68472480773926,12.13964557647705,1764235.509115875,1.056396484375,0.3545074462890625,-0.500732421875,1764235.504136875,0.917907178401947,3.732762813568115,-3.673454761505127,1764235.505105875,-117.1251525878906,87.98851013183594,-309.30810546875,1764235.464297875,-1.060688991655202,0.965109018301081,0.4044585156534392,3.006069183349609,4.711957454681396,-1.994424939155579,0.1336095333099365,0.4938781559467316,0.2366635203361511,2,0.3834224235541506,0.3021448861490919,-0.3585382953051683,0.7957046985463019,0.7557794451713562,-0.3935210108757019,-0.5233914256095886,20.81468963623047,10.84172058105469,-31.53399658203125,-1,2,1764234.337615875,1,2,1676829320.956407,1676828598.712269,1215,0.7487738,0,0,935.7173,0,1,1676829315.85709,1764232.494881,0,1.952682,99.14599,1676829319.880009,0,182416158,0,0,1,1676829319.851255,1,0.55,1
1676829322.20024,40,1676829322.000997,34.05293550476954,-117.8198548971567,217.8025,0,1.45021,13.79266345025571,180,3.221381742548005,4.842234680554755,-9999,1676829322.194959,22.14453887939453,21.73040008544922,-20.33154296875,51.55947494506836,40.07724761962891,12.14208507537842,1764235.568873875,1.534317016601562,0.3649139404296875,-0.56463623046875,1764235.563893875,0.0004721784498542547,3.89567756652832,-5.444376945495605,1764235.565161875,-119.1853637695312,97.37030029296875,-302.3146057128906,1764235.524055875,-1.229183110654184,1.267504949421675,0.2697646748820048,-0.06652294844388962,3.852698564529419,-4.38831615447998,0.2348964214324951,0.6436256170272827,-0.2326006591320038,2,0.4268914840926559,0.4169327801250328,-0.3953705755757492,0.6982928431818554,0.9198430180549622,-0.2665046155452728,-0.2878614366054535,23.80818939208984,15.1165771484375,-25.21466064453125,-1,2,1764234.337615875,1,2,1676829320.956407,1676828598.712269,1215,0.7487738,0,0,935.7173,0,1,1676829315.85709,1764232.494881,0,1.952682,99.14599,1676829319.880009,0,182416158,0,0,1,1676829319.851255,1,0.55,1
1676829322.259518,41,1676829322.000997,34.05293550476954,-117.8198548971567,217.8025,0,1.45021,13.79266345025571,180,3.221381742548005,4.842234680554755,-9999,1676829322.254551,14.79737091064453,30.36339569091797,-16.7161865234375,73.43917846679688,61.95695495605469,12.14424514770508,1764235.628630875,1.635635375976562,0.324432373046875,-0.445770263671875,1764235.623651875,1.877141356468201,1.997724175453186,-4.566403865814209,1764235.625220875,-126.7631225585938,105.7034759521484,-299.33349609375,1764235.583812875,-1.278596322536432,1.502983771139861,-0.03437789117041537,0.3421448469161987,3.393004894256592,-5.884099006652832,0.7014962434768677,0.3378518223762512,-0.6304301023483276,2,0.3971997170455245,0.5553126187384197,-0.4452950092978878,0.5792863585421619,0.9971121549606323,0.03437111899256706,-0.06772056221961975,20.12344360351562,25.19874572753906,-18.31314086914062,-1,2,1764234.337615875,1,2,1676829320.956407,1676828598.712269,1215,0.7487738,0,0,935.7173,0,1,1676829315.85709,1764232.494881,0,1.952682,99.14599,1676829319.880009,0,182416158,0,0,1,1676829319.851255,1,0.55,1
1676829322.319878,42,1676829322.000997,34.05293550476954,-117.8198548971567,217.8025,0,1.45021,13.79266345025571,180,3.221381742548005,4.842234680554755,-9999,1676829322.314448,8.382675170898438,31.48251342773438,-21.85052490234375,98.26815032958984,86.78592681884766,12.14452743530273,1764235.688388875,1.746536254882812,0.169403076171875,-0.2995147705078125,1764235.683408875,3.749063968658447,0.2694948613643646,-3.05189037322998,1764235.685281875,-132.9603881835938,106.2688293457031,-304.9804077148438,1764235.643570875,-1.36983139513815,1.619122195878123,-0.3341311803673878,3.036845207214355,1.390164136886597,-3.92862868309021,0.8545792698860168,-0.01853075623512268,-0.392086386680603,2,0.3627823087283459,0.6254652132894187,-0.5235468586906108,0.4506451441201729,0.9435927867889404,0.3279485106468201,0.04563547298312187,12.27009582519531,31.11582946777344,-17.59881591796875,-1,2,1764234.337615875,1,2,1676829320.956407,1676828598.712269,1215,0.7487738,0,0,935.7173,0,1,1676829315.85709,1764232.494881,0,1.952682,99.14599,1676829319.880009,0,182416158,0,0,1,1676829319.851255,1,0.55,1
1676829322.378936,43,1676829322.000997,34.05293550476954,-117.8198548971567,217.8025,0,1.45021,13.79266345025571,180,3.221381742548005,4.842234680554755,-9999,1676829322.374294,4.990631103515625,28.66258239746094,-28.75408935546875,114.4705810546875,102.9883575439453,12.14660453796387,1764235.748146875,1.572097778320312,-0.0166015625,-0.1705169677734375,1764235.743166875,3.202381134033203,-0.8503992557525635,-0.5879908204078674,1764235.745337875,-136.1346740722656,103.4276885986328,-311.6318664550781,1764235.703327875,-1.605364354701867,1.548720573144702,-0.5358406898859469,3.912092685699463,-0.1728789806365967,-2.224517583847046,0.8654827475547791,-0.4098866581916809,-0.2141437530517578,2,0.3534966250354781,0.6046073962160694,-0.6244186541796939,0.3458197019112505,0.8596300482749939,0.5105640888214111,-0.01898006536066532,6.642547607421875,31.05953979492188,-24.14248657226562,-1,2,1764234.337615875,1,2,1676829320.956407,1676828598.712269,1215,0.7487738,0,0,935.7173,0,1,1676829315.85709,1764232.494881,0,1.952682,99.14599,1676829319.880009,0,182416158,0,0,1,1676829319.851255,1,0.55,1
1676829322.439864,44,1676829322.000997,34.05293550476954,-117.8198548971567,217.8025,0,1.45021,13.79266345025571,180,3.221381742548005,4.842234680554755,-9999,1676829322.434179,3.149658203125,25.21492004394531,-32.72442626953125,116.9768371582031,105.4946136474609,12.14863872528076,1764235.807903875,1.27972412109375,0.1087646484375,-0.071533203125,1764235.802923875,0.6695240139961243,-1.23555064201355,0.5843393206596375,1764235.805397875,-137.9564971923828,100.0024566650391,-315.4216918945312,1764235.763085875,-1.853306178665805,1.377835956539179,-0.575312522532595,2.270553350448608,-1.044060230255127,-0.06923415511846542,0.6457874774932861,-0.5214530229568481,0.009817898273468018,2,0.3559170901625218,0.5411796373387695,-0.7001920063429741,0.3002978606590438,0.8234508037567139,0.5440970063209534,-0.1608952432870865,4.504837036132812,26.94126129150391,-30.70730590820312,-1,2,1764234.337615875,1,2,1676829320.956407,1676828598.712269,1215,0.7487738,0,0,935.7173,0,1,1676829315.85709,1764232.494881,0,1.952682,99.14599,1676829319.880009,0,182416158,0,0,1,1676829319.851255,1,0.55,1
1676829322.498459,45,1676829322.000997,34.05293550476954,-117.8198548971567,217.8025,0,1.45021,13.79266345025571,180,3.221381742548005,4.842234680554755,-9999,1676829322.493735,3.413604736328125,24.46272277832031,-33.79116821289062,113.7027435302734,102.2205200195312,12.15065288543701,1764235.867661875,0.99072265625,0.20953369140625,0.07574462890625,1764235.862681875,0.103605754673481,-0.519430935382843,0.9708135724067688,1764235.865464875,-137.4289093017578,99.38420104980469,-316.248291015625,1764235.822842875,-1.920081298760298,1.271821163793339,-0.5368916896126067,0.3835959732532501,-1.028253793716431,0.7268797755241394,0.3865959644317627,-0.3553242683410645,0.2219108045101166,2,0.3467389422788473,0.5032118543852497,-0.7258167819560347,0.315816459331993,0.8211830854415894,0.5114675164222717,-0.2530998587608337,3.153717041015625,24.86508941650391,-33.11727905273438,-1,2,1764234.337615875,1,2,1676829320.956407,1676828598.712269,1215,0.7487738,0,0,935.7173,0,1,1676829315.85709,1764232.494881,0,1.952682,99.14599,1676829319.880009,0,182416158,0,0,1,1676829319.851255,1,0.55,1
1676829322.559995,46,1676829322.000997,34.05293550476954,-117.8198548971567,217.8025,0,1.45021,13.79266345025571,180,3.221381742548005,4.842234680554755,-9999,1676829322.553317,4.774917602539062,24.56892395019531,-34.1937255859375,108.6521530151367,97.16992950439453,12.15263938903809,1764235.927418875,1.059967041015625,-0.168060302734375,-0.0302581787109375,1764235.922438875,-0.2258685529232025,0.7736623883247375,1.714138031005859,1764235.925527875,-135.9216918945312,99.56227111816406,-316.705810546875,1764235.882600875,-1.909425470109005,1.236303232238412,-0.4837751400424748,-0.3091669082641602,-0.4917855858802795,0.8994255065917969,0.07710200548171997,-0.2006590962409973,0.3530259132385254,2,0.3464116311533802,0.484448360366209,-0.7259722751314752,0.3439084144593105,0.8361822366714478,0.4651243984699249,-0.2906175255775452,3.58154296875,24.21846008300781,-33.70077514648438,-1,2,1764234.337615875,1,2,1676829320.956407,1676828598.712269,1215,0.7487738,0,0,935.7173,0,1,1676829315.85709,1764232.494881,0,1.952682,99.14599,1676829319.880009,0,182416158,0,0,1,1676829319.851255,1,0.55,1
1676829322.619555,47,1676829322.000997,34.05293550476954,-117.8198548971567,217.8025,0,1.45021,13.79266345025571,180,3.221381742548005,4.842234680554755,-9999,1676829322.613339,6.378173828125,24.17630004882812,-33.67156982421875,100.2277450561523,88.74552154541016,12.15458583831787,1764235.987176875,0.778289794921875,-0.010772705078125,-0.2709503173828125,1764235.982196875,-0.3788796663284302,-0.5352357029914856,2.003460884094238,1764235.985589875,-134.0086669921875,99.14642333984375,-316.3199462890625,1764235.942357875,-1.848140715542093,1.260561194629064,-0.4098538299354363,-0.4561586081981659,-0.6502329707145691,2.135353088378906,-0.07770979404449463,-0.1972118616104126,0.1567992568016052,2,0.3614511257119222,0.4789088621207069,-0.7035026945052816,0.3808980829561349,0.8733946084976196,0.3984752595424652,-0.279998779296875,5.912445068359375,24.52635192871094,-33.97967529296875,-1,2,1764234.337615875,1,2,1676829320.956407,1676828598.712269,1215,0.7487738,0,0,935.7173,0,1,1676829315.85709,1764232.494881,0,1.952682,99.14599,1676829319.880009,0,182416158,0,0,1,1676829319.851255,1,0.55,1
1676829322.679742,48,1676829322.000997,34.05293550476954,-117.8198548971567,217.8025,0,1.45021,13.79266345025571,180,3.221381742548005,4.842234680554755,-9999,1676829322.67292,7.742767333984375,22.92219543457031,-34.09991455078125,93.37574768066406,81.89352416992188,12.15631008148193,1764236.046933875,0.34710693359375,0.7553253173828125,0.0090789794921875,1764236.041953875,-0.2666069269180298,0.5467216968536377,0.6403879523277283,1764236.045652875,-132.3805389404297,98.28326416015625,-317.0903625488281,1764236.002115875,-1.7790608889896,1.240723536813076,-0.3016180313625534,-0.0827091857790947,-1.080100178718567,2.121686458587646,-0.3864365220069885,-0.1664045751094818,-0.02512949705123901,2,0.3694512387739753,0.456908651388086,-0.6798676293537975,0.4387713258566645,0.9033126831054688,0.2970655858516693,-0.3094805181026459,6.654052734375,23.86277008056641,-33.89877319335938,-1,2,1764234.337615875,1,2,1676829320.956407,1676828598.712269,1215,0.7487738,0,0,935.7173,0,1,1676829315.85709,1764232.494881,0,1.952682,99.14599,1676829319.880009,0,182416158,0,0,1,1676829319.851255,1,0.55,1
1676829322.737495,49,1676829322.000997,34.05293550476954,-117.8198548971567,217.8025,0,1.45021,13.79266345025571,180,3.221381742548005,4.842234680554755,-9999,1676829322.732584,9.833740234375,23.92753601074219,-33.1649169921875,93.81370544433594,82.33148193359375,12.15613079071045,1764236.106691875,1.118408203125,0.4470367431640625,-0.1914825439453125,1764236.101711875,-1.068703055381775,2.146975755691528,-1.436057686805725,1764236.105711875,-131.2156219482422,99.44110107421875,-314.806884765625,1764236.061873875,-1.745282236543027,1.241767169429613,-0.2436126427534739,-0.06995897740125656,0.8621295690536499,0.0280749499797821,-0.4245015978813171,0.5494697690010071,0.3173065483570099,2,0.3788115649696249,0.4468893225502752,-0.6638823266988761,0.4648137943601114,0.9184132218360901,0.2412101626396179,-0.3135834634304047,8.47711181640625,23.39912414550781,-34.23098754882812,-1,2,1764234.337615875,1,2,1676829320.956407,1676828598.712269,1215,0.7487738,0,0,935.7173,0,1,1676829315.85709,1764233.495462,0,1.939468,99.14615,1676829319.880009,0,182416158,0,0,1,1676829319.851255,1,0.55,1
1676829322.799493,50,1676829322.000997,34.05293550476954,-117.8198548971567,217.8025,0,1.45021,13.79266345025571,180,3.221381742548005,4.842234680554755,-9999,1676829322.792691,8.053482055664062,27.64726257324219,-30.7298583984375,98.45669555664062,86.97447204589844,12.15629100799561,1764236.166448875,1.219039916992188,-0.1392822265625,-0.2563629150390625,1764236.161468875,-1.058172464370728,-0.5929102301597595,-1.902897596359253,1764236.165770875,-133.6480102539062,103.6267852783203,-313.2974243164062,1764236.121630875,-1.718120602148893,1.33930526982915,-0.3070284472809758,-0.9456348419189453,1.118651628494263,-2.05239462852478,0.3644276261329651,-0.2799190580844879,-0.02922485768795013,2,0.3861897333665119,0.4914341173278897,-0.6487072881623525,0.4341990138550104,0.9278085827827454,0.3022273778915405,-0.2186999917030334,10.06045532226562,25.01808166503906,-32.05450439453125,-1,2,1764234.337615875,1,2,1676829320.956407,1676828598.712269,1215,0.7487738,0,0,935.7173,0,1,1676829315.85709,1764233.495462,0,1.939468,99.14615,1676829319.880009,0,182416158,0,0,1,1676829319.851255,1,0.55,1
1676829322.857074,51,1676829322.000997,34.05293550476954,-117.8198548971567,217.8025,0,1.45021,13.79266345025571,180,3.221381742548005,4.842234680554755,-9999,1676829322.852121,2.985458374023438,33.05626678466797,-27.04336547851562,101.3343734741211,89.85214996337891,12.15769577026367,1764236.226206875,1.525070190429688,0.284332275390625,0.1025238037109375,1764236.221226875,-3.206289291381836,0.1933391094207764,-4.136727809906006,1764236.225829875,-140.2372131347656,109.6792297363281,-307.8992919921875,1764236.181388875,-1.679274705632445,1.335035784851145,-0.4402076940187047,-1.923988342285156,-0.5083227753639221,-2.113417625427246,0.412492036819458,-0.4870252013206482,-0.001424551010131836,2,0.3352005568421862,0.531021490333442,-0.6607666773475571,0.4111497408380566,0.8796374201774597,0.4261273741722107,-0.2113135308027267,6.90277099609375,29.04338836669922,-30.72772216796875,-1,2,1764234.337615875,1,2,1676829320.956407,1676828598.712269,1215,0.7487738,0,0,935.7173,0,1,1676829315.85709,1764233.495462,0,1.939468,99.14615,1676829319.880009,0,182416158,0,0,1,1676829319.851255,1,0.55,1
1676829322.919903,52,1676829322.000997,34.05293550476954,-117.8198548971567,217.8025,0,1.45021,13.79266345025571,180,3.221381742548005,4.842234680554755,-9999,1676829322.912123,-8.000778198242188,38.56727600097656,-20.75045776367188,115.949462890625,104.4672393798828,12.1598424911499,1764236.285963167,1.000320434570312,0.4671478271484375,0.2637176513671875,1764236.280983167,-1.574150800704956,1.141503214836121,-6.164841651916504,1764236.285884167,-152.1515808105469,114.4625244140625,-302.4513244628906,1764236.241145875,-1.528290732800291,1.41551913111223,-0.6835491783060516,-3.018080949783325,0.8240652084350586,-5.180500507354736,0.6986070275306702,-0.3722867965698242,0.2807973623275757,2,0.2399634702172422,0.6184360416523378,-0.6526441875502957,0.3660735812154188,0.7660077214241028,0.6315488219261169,-0.1199087873101234,-0.125946044921875,35.46553802490234,-24.8040771484375,-1,2,1764234.337615875,1,2,1676829320.956407,1676828598.712269,1215,0.7487738,0,0,935.7173,0,1,1676829315.85709,1764233.495462,0,1.939468,99.14615,1676829319.880009,0,182416158,0,0,1,1676829319.851255,1,0.55,1
1676829322.976452,53,1676829322.000997,34.05293550476954,-117.8198548971567,217.8025,0,1.45021,13.79266345025571,180,3.221381742548005,4.842234680554755,-9999,1676829322.971907,-20.08560180664062,39.26595306396484,-18.49728393554688,130.1734619140625,118.6912307739258,12.16170501708984,1764236.345721167,-0.109649658203125,0.7115020751953125,0.129486083984375,1764236.340741167,-1.31880247592926,0.4831432104110718,-0.7464624643325806,1764236.345936167,-161.3610229492188,114.2666625976562,-300.3244018554688,1764236.300903167,-1.384386811489926,1.584754962912756,-1.044908480349314,-0.8004344701766968,0.427693635225296,-5.878512859344482,0.2468012571334839,-0.3818921446800232,0.1398742198944092,2,0.1240706720641508,0.6986485815001692,-0.6618836251286359,0.2416748059359515,0.5019322037696838,0.8648785948753357,0.007006744388490915,-12.62071228027344,39.24125671386719,-20.12799072265625,-1,2,1764234.337615875,1,2,1676829320.956407,1676828598.712269,1215,0.7487738,0,0,935.7173,0,1,1676829315.85709,1764233.495462,0,1.939468,99.14615,1676829319.880009,0,182416158,0,0,1,1676829319.851255,1,0.55,1
1676829323.039791,54,1676829322.000997,34.05293550476954,-117.8198548971567,217.8025,0,1.45021,13.79266345025571,180,3.221381742548005,4.842234680554755,-9999,1676829323.031617,-21.43429565429688,41.0765380859375,-15.00347900390625,126.0462951660156,114.5640716552734,12.1626148223877,1764236.405478167,0.0466461181640625,1.196807861328125,0.359039306640625,1764236.400499167,-1.382970213890076,-0.9688891768455505,0.1305364370346069,1764236.405987167,-162.6640777587891,116.5847625732422,-296.4011840820312,1764236.360660167,-1.20635119720743,1.750395671730644,-1.18905410202021,-1.150427937507629,-0.5944620370864868,-0.1841113716363907,-0.2512960135936737,-0.1501087546348572,0.2592571973800659,2,0.06514089982047511,0.7273450829402417,-0.6552592463367021,0.1932901000362724,0.366545557975769,0.9280170202255249,0.0665484145283699,-20.25753784179688,39.55437469482422,-17.73431396484375,-1,2,1764234.337615875,1,2,1676829320.956407,1676828598.712269,1215,0.7487738,0,0,935.7173,0,1,1676829315.85709,1764233.495462,0,1.939468,99.14615,1676829319.880009,0,182416158,0,0,1,1676829319.851255,1,0.55,1
1676829323.096049,55,1676829322.000997,34.05293550476954,-117.8198548971567,217.8025,0,1.45021,13.79266345025571,180,3.221381742548005,4.842234680554755,-9999,1676829323.091151,-22.3880615234375,42.62019348144531,-12.00857543945312,124.0356292724609,112.5534057617188,12.16404628753662,1764236.465236167,0.283599853515625,1.639724731445312,0.0041961669921875,1764236.460256167,0.09702587872743607,0.1578500866889954,-0.007377222646027803,1764236.466039167,-163.3088684082031,117.8237915039062,-294.0181579589844,1764236.420418167,-0.9958354183850895,1.885707619140923,-1.166707767152133,-1.160605907440186,-0.304406613111496,0.05520061403512955,-0.3053949773311615,0.5350066423416138,0.1690363883972168,2,0.038263869420053,0.7479480417695805,-0.6258031457731977,0.217899223543718,0.3738459050655365,0.9194611310958862,0.1217807903885841,-21.92294311523438,41.63185119628906,-13.7340087890625,-1,2,1764234.337615875,1,2,1676829320.956407,1676828598.712269,1215,0.7487738,0,0,935.7173,0,1,1676829315.85709,1764233.495462,0,1.939468,99.14615,1676829319.880009,0,182416158,0,0,1,1676829319.851255,1,0.55,1
1676829323.155687,56,1676829322.000997,34.05293550476954,-117.8198548971567,217.8025,0,1.45021,13.79266345025571,180,3.221381742548005,4.842234680554755,-9999,1676829323.151177,-19.51567077636719,43.65835571289062,-12.069580078125,122.1040802001953,110.6218566894531,12.1659107208252,1764236.524993167,0.5195770263671875,0.777801513671875,-0.043365478515625,1764236.520014167,-0.0789070650935173,0.9848441481590271,1.967109799385071,1764236.526094167,-159.3926391601562,119.1452941894531,-294.4906005859375,1764236.480175167,-0.9583286432815189,1.921314625337306,-1.157362430208059,0.5065044760704041,0.1260243952274323,0.6076815724372864,-0.08860069513320923,0.4881992936134338,-0.194963812828064,2,0.03824882894540765,0.7533362472843305,-0.6189139829323699,0.2190137571647418,0.3773274719715118,0.9157466292381287,0.1379569470882416,-22.12303161621094,43.17498779296875,-11.61993408203125,-1,2,1764234.337615875,1,2,1676829320.956407,1676828598.712269,1215,0.7487738,0,0,935.7173,0,1,1676829315.85709,1764233.495462,0,1.939468,99.14615,1676829319.880009,0,182416158,0,0,1,1676829319.851255,1,0.55,1
1676829323.215462,57,1676829323.001005,34.05294077045271,-117.819854714063,217.7841,0,1.472476,13.79266369640396,180,3.195210397717211,4.859543964932167,-9999,1676829323.210671,-15.31489562988281,45.01628112792969,-12.68923950195312,123.4825134277344,112.0002899169922,12.1677713394165,1764236.584751167,0.0408782958984375,0.5916900634765625,-0.26373291015625,1764236.579771167,0.1045114919543266,1.024938344955444,0.3357020914554596,1764236.586146167,-155.7709197998047,120.0798492431641,-295.4761047363281,1764236.539933167,-1.044922079707071,1.884875278703511,-1.07289206739031,-0.004447980783879757,1.631933569908142,1.489458322525024,0.07179385423660278,-0.1374661326408386,-0.1755148321390152,2,0.08664591439113445,0.7525059526324284,-0.610430935465511,0.2315195125351842,0.4542223215103149,0.8785853981971741,0.1475454419851303,-17.80537414550781,44.02791595458984,-12.38833618164062,-1,2,1764234.337615875,1,2,1676829320.956407,1676828598.712269,1215,0.7487738,0,0,935.7173,0,1,1676829315.85709,1764233.495462,0,1.939468,99.14615,1676829319.880009,0,182416158,0,0,1,1676829319.851255,1,0.55,1
1676829323.275261,58,1676829323.001005,34.05294077045271,-117.819854714063,217.7841,0,1.472476,13.79266369640396,180,3.195210397717211,4.859543964932167,-9999,1676829323.270478,-13.83717346191406,45.40000152587891,-12.69943237304688,125.3929748535156,113.9107513427734,12.16916561126709,1764236.644508167,-0.018280029296875,0.5224609375,0.0886688232421875,1764236.639529167,-0.1732317060232162,1.008205890655518,0.1270210593938828,1764236.646202167,-154.442138671875,120.6033935546875,-294.8587036132812,1764236.599690167,-1.078379026740668,1.933333608868546,-1.040330381733847,-0.03885405883193016,0.7536560297012329,0.2585630416870117,-0.5266080498695374,-0.2802043557167053,-0.3686684370040894,2,0.1243946840439459,0.7577865138522822,-0.6040973514051471,0.212960168694637,0.4730497002601624,0.8625714182853699,0.1794288754463196,-14.65562438964844,45.09471130371094,-12.75799560546875,-1,2,1764234.337615875,1,2,1676829320.956407,1676828598.712269,1215,0.7487738,0,0,935.7173,0,1,1676829315.85709,1764233.495462,0,1.939468,99.14615,1676829319.880009,0,182416158,0,0,1,1676829319.851255,1,0.55,1
1676829323.336143,59,1676829323.001005,34.05294077045271,-117.819854714063,217.7841,0,1.472476,13.79266369640396,180,3.195210397717211,4.859543964932167,-9999,1676829323.330229,-13.73995971679688,46.14402770996094,-12.68768310546875,129.1399688720703,117.6577453613281,12.16661357879639,1764236.704266167,0.463623046875,0.622039794921875,0.679473876953125,1764236.699286167,0.03820917010307312,0.577120304107666,-0.4046388268470764,1764236.706262167,-154.6944274902344,120.8101806640625,-295.0963745117188,1764236.659448167,-1.068260895912269,1.991873235338413,-1.028886270483278,-0.01086271833628416,0.8430185317993164,-0.1572400629520416,-0.392778217792511,-0.3692067861557007,-0.08313345909118652,2,0.1416918961554257,0.7650705160853921,-0.5964164266958565,0.1971748547177024,0.4707200825214386,0.8567250967025757,0.2108189761638641,-13.76042175292969,45.98492431640625,-12.27786254882812,-1,2,1764234.337615875,1,2,1676829320.956407,1676828598.712269,1215,0.7487738,0,0,935.7173,0,1,1676829315.85709,1764233.495462,0,1.939468,99.14615,1676829319.880009,0,182416158,0,0,1,1676829319.851255,1,0.55,1
1676829323.394849,60,1676829323.001005,34.05294077045271,-117.819854714063,217.7841,0,1.472476,13.79266369640396,180,3.195210397717211,4.859543964932167,-9999,1676829323.39012,-12.59837341308594,46.36111450195312,-13.06900024414062,127.1527252197266,115.6705017089844,12.16501617431641,1764236.764024167,1.558914184570312,1.200302124023438,0.2303466796875,1764236.759044167,1.285249471664429,-0.3235149383544922,1.821700692176819,1764236.766323167,-152.4866638183594,121.4300689697266,-296.3724365234375,1764236.719205167,-1.060448424270952,2.031661180034921,-1.048412623972262,0.1749000698328018,0.01400934439152479,0.1693094521760941,0.280052661895752,-0.1564730405807495,0.6772003173828125,2,0.144588171990281,0.7681412085645216,-0.5976881695588353,0.1783877767700375,0.4468912780284882,0.8666322827339172,0.221893310546875,-13.53237915039062,46.51885986328125,-12.63796997070312,-1,2,1764234.337615875,1,2,1676829320.956407,1676828598.712269,1215,0.7487738,0,0,935.7173,0,1,1676829315.85709,1764233.495462,0,1.939468,99.14615,1676829319.880009,0,182416158,0,0,1,1676829319.851255,1,0.55,1
1676829323.454562,61,1676829323.001005,34.05294077045271,-117.819854714063,217.7841,0,1.472476,13.79266369640396,180,3.195210397717211,4.859543964932167,-9999,1676829323.449948,-9.148162841796875,46.70425415039062,-15.25692749023438,126.748649597168,115.2664260864258,12.1660795211792,1764236.823781167,0.6082916259765625,0.69171142578125,0.4384613037109375,1764236.818801167,0.5316711068153381,0.08442699909210205,-0.5096190571784973,1764236.826384167,-150.1421051025391,121.9176940917969,-297.5947875976562,1764236.778963167,-1.201203682854857,1.891696829782217,-0.9934007755048223,0.7568520307540894,0.1292999386787415,1.57011890411377,1.252604842185974,0.3988377451896667,-0.1589412689208984,2,0.1729357679829073,0.7457737869195316,-0.6095114061050588,0.2059381590712915,0.5179792046546936,0.8378871083259583,0.1721706390380859,-10.92138671875,46.43736267089844,-14.11203002929688,-1,2,1764234.337615875,1,2,1676829320.956407,1676828598.712269,1215,0.7487738,0,0,935.7173,0,1,1676829315.85709,1764233.495462,0,1.939468,99.14615,1676829319.880009,0,182416158,0,0,1,1676829319.851255,1,0.55,1
1676829323.514364,62,1676829323.001005,34.05294077045271,-117.819854714063,217.7841,0,1.472476,13.79266369640396,180,3.195210397717211,4.859543964932167,-9999,1676829323.509471,-10.30744934082031,47.02564239501953,-15.27963256835938,131.2626800537109,119.7804565429688,12.16786289215088,1764236.883539167,1.0540771484375,1.712875366210938,-0.083984375,1764236.878559167,1.306016087532043,2.246119022369385,0.9168355464935303,1764236.886445167,-150.4842681884766,121.781982421875,-299.4247131347656,1764236.838720167,-1.244894994705319,1.874063928850573,-1.003498431154638,0.8871043920516968,-0.3769109845161438,-0.982512354850769,0.0914299488067627,0.2409487366676331,0.4216620922088623,2,0.1804975631665816,0.7400395731021272,-0.6175759612868801,0.1958620888572214,0.512833297252655,0.8433560132980347,0.160475879907608,-9.32171630859375,46.666259765625,-15.5093994140625,-1,2,1764234.337615875,1,2,1676829320.956407,1676828598.712269,1215,0.7487738,0,0,935.7173,0,1,1676829315.85709,1764233.495462,0,1.939468,99.14615,1676829319.880009,0,182416158,0,0,1,1676829319.851255,1,0.55,1
1676829323.574178,63,1676829323.001005,34.05294077045271,-117.819854714063,217.7841,0,1.472476,13.79266369640396,180,3.195210397717211,4.859543964932167,-9999,1676829323.569176,-12.683837890625,45.433349609375,-20.85116577148438,140.1962738037109,128.7140502929688,12.16993427276611,1764236.943296167,-0.43048095703125,0.28057861328125,-0.2808990478515625,1764236.938316167,0.5078155398368835,-1.659880638122559,-3.612993955612183,1764236.946498167,-156.4770355224609,120.2332000732422,-304.06884765625,1764236.898478167,-1.339935027835871,1.867663304043334,-1.022458716902049,3.054173231124878,0.757280170917511,-0.3618573248386383,0.0858064591884613,0.2875990867614746,-0.7282599210739136,2,0.2072816679535112,0.7302579344546536,-0.6303942487468334,0.1623601133750802,0.4984678626060486,0.8533922433853149,0.1524846851825714,-9.279541015625,46.59326934814453,-17.456787109375,-1,2,1764234.337615875,1,2,1676829320.956407,1676828598.712269,1215,0.7487738,0,0,935.7173,0,1,1676829315.85709,1764233.495462,0,1.939468,99.14615,1676829319.880009,0,182416158,0,0,1,1676829319.851255,1,0.55,1
1676829323.633805,64,1676829323.001005,34.05294077045271,-117.819854714063,217.7841,0,1.472476,13.79266369640396,180,3.195210397717211,4.859543964932167,-9999,1676829323.62899,-21.96189880371094,43.72637176513672,-21.19015502929688,144.2017822265625,132.7195587158203,12.17170906066895,1764237.003054167,-0.2718658447265625,1.061752319335938,-0.406219482421875,1764236.998074167,0.2833856344223022,-1.136283159255981,-1.264761328697205,1764236.976524167,-161.4892272949219,118.9766540527344,-304.0874633789062,1764236.958235167,-1.439289223306853,1.719319163390701,-1.198098190719478,0.40910404920578,-1.840124011039734,-3.137948989868164,-0.9362318515777588,-0.4348272681236267,-0.2699780464172363,2,0.1356370111942934,0.7131227766780288,-0.6765565188622383,0.1238137762652098,0.3601210415363312,0.9313482642173767,0.05388298630714417,-16.79856872558594,45.30767059326172,-21.3736572265625,-1,2,1764234.337615875,1,2,1676829320.956407,1676828598.712269,1215,0.7487738,0,0,935.7173,0,1,1676829315.85709,1764233.495462,0,1.939468,99.14615,1676829319.880009,0,182416158,0,0,1,1676829319.851255,1,0.55,1
1676829323.693646,65,1676829323.001005,34.05294077045271,-117.819854714063,217.7841,0,1.472476,13.79266369640396,180,3.195210397717211,4.859543964932167,-9999,1676829323.689101,-23.08210754394531,43.90232849121094,-20.46279907226562,150.4378509521484,138.9556274414062,12.17314624786377,1764237.062811167,0.324554443359375,0.900970458984375,0.04168701171875,1764237.057831167,-1.475571751594543,4.143476963043213,-1.23358416557312,1764237.036576167,-164.1485137939453,118.6261138916016,-303.6432495117188,1764237.017993167,-1.459123682653459,1.62502027636332,-1.3031892321227,-0.2010365724563599,-0.108765535056591,-0.5557147264480591,-0.4536263346672058,-0.165883481502533,-0.3069642782211304,2,0.07388013248541264,0.7083129836930806,-0.6926816763163413,0.1141338657297452,0.2640358209609985,0.9644063711166382,0.01433111354708672,-23.21708679199219,43.44509124755859,-21.56539916992188,-1,2,1764234.337615875,1,2,1676829320.956407,1676828598.712269,1215,0.7487738,0,0,935.7173,0,1,1676829315.85709,1764233.495462,0,1.939468,99.14615,1676829319.880009,0,182416158,0,0,1,1676829319.851255,1,0.55,1
1676829323.75338,66,1676829323.001005,34.05294077045271,-117.819854714063,217.7841,0,1.472476,13.79266369640396,180,3.195210397717211,4.859543964932167,-9999,1676829323.748632,-24.49594116210938,41.93354034423828,-24.36050415039062,159.39306640625,147.9108428955078,12.17447566986084,1764237.122569167,0.1926116943359375,1.1561279296875,-0.1742706298828125,1764237.117589167,0.962807297706604,-0.4880042970180511,0.002014681464061141,1764237.096632167,-164.6898040771484,117.4543304443359,-306.2770690917969,1764237.077751167,-1.25220857474588,1.976135288283828,-1.356132329600234,2.065483570098877,1.733644366264343,-1.467280268669128,0.2578098177909851,0.05600243806838989,1.129211187362671,2,0.1013264481052429,0.729200137908097,-0.6755527046394927,0.04035583274106053,0.1957576721906662,0.9770480394363403,0.08399978280067444,-23.01887512207031,43.51361846923828,-21.1279296875,-1,2,1764234.337615875,1,2,1676829320.956407,1676828598.712269,1215,0.7487738,0,0,935.7173,0,1,1676829315.85709,1764234.496041,0,1.881332,99.14683,1676829319.880009,0,182416158,0,0,1,1676829319.851255,1,0.55,1
1676829323.813024,67,1676829323.001005,34.05294077045271,-117.819854714063,217.7841,0,1.472476,13.79266369640396,180,3.195210397717211,4.859543964932167,-9999,1676829323.808326,-25.14749145507812,40.1895751953125,-27.706298828125,156.7278289794922,145.24560546875,12.17587757110596,1764237.182326167,0.1807098388671875,0.739715576171875,-0.030181884765625,1764237.177346167,2.471861839294434,-1.075247049331665,-0.2172473669052124,1764237.156686167,-165.7933807373047,115.7772216796875,-309.1010131835938,1764237.137508167,-1.664556256064405,1.562687198554562,-1.405726084264274,1.515734314918518,-0.9637723565101624,0.2998858094215393,0.04439342021942139,0.02535772323608398,-0.07075011730194092,2,0.08838909403117839,0.7010856740876132,-0.7070215575377743,0.02804958667453483,0.1643163114786148,0.9864068031311035,-0.00133249128703028,-24.59764099121094,41.91738128662109,-24.779052734375,-1,2,1764234.337615875,1,2,1676829320.956407,1676828598.712269,1215,0.7487738,0,0,935.7173,0,1,1676829315.85709,1764234.496041,0,1.881332,99.14683,1676829319.880009,0,182416158,0,0,1,1676829319.851255,1,0.55,1
1676829323.872803,68,1676829323.001005,34.05294077045271,-117.819854714063,217.7841,0,1.472476,13.79266369640396,180,3.195210397717211,4.859543964932167,-9999,1676829323.867986,-26.68385314941406,37.55239868164062,-31.38742065429688,158.9532470703125,147.4710235595703,12.17679023742676,1764237.242084167,0.395355224609375,1.049423217773438,-0.21142578125,1764237.237104167,0.8095548748970032,1.508716940879822,-0.5586475729942322,1764237.216740167,-167.8755035400391,113.0149993896484,-312.8811645507812,1764237.197266167,-2.335747179718798,0.8416381134977591,-1.360327482351287,2.045940637588501,-0.5610524415969849,-0.501905083656311,0.0759827196598053,-0.1986972093582153,0.1300962567329407,2,0.06707865769798688,0.6526141076995446,-0.753550815323059,0.04191134796536755,0.1557982265949249,0.9779330492019653,-0.1391905546188354,-25.68716430664062,39.2431640625,-29.6788330078125,-1,2,1764237.205980167,1,2,1676829323.824771,1676828598.712269,1215,0.7487738,0,0,935.7173,0,1,1676829315.85709,1764234.496041,0,1.881332,99.14683,1676829319.880009,0,182416158,0,0,1,1676829319.851255,1,0.55,1
1676829323.932613,69,1676829323.001005,34.05294077045271,-117.819854714063,217.7841,0,1.472476,13.79266369640396,180,3.195210397717211,4.859543964932167,-9999,1676829323.92781,-26.75682067871094,35.90824890136719,-34.08892822265625,164.1150207519531,152.6327972412109,12.17780590057373,1764237.301837667,0.1939849853515625,0.900054931640625,-0.182586669921875,1764237.296857667,0.6317249536514282,-0.7408445477485657,-0.6293638348579407,1764237.276794667,-167.2230682373047,111.618408203125,-316.8355712890625,1764237.257019667,-2.637288350188967,0.5964897727153862,-1.332936313857361,0.8814010620117188,1.499709606170654,-0.8357686996459961,0.2704265117645264,0.08702397346496582,-0.1054500937461853,2,0.0762315963269532,0.6298583267271767,-0.7728740972790538,0.01153026162074822,0.1323597133159637,0.9718444347381592,-0.1949344575405121,-26.51104736328125,36.85453033447266,-32.66671752929688,-1,2,1764237.205980167,1,2,1676829323.824771,1676828598.712269,1215,0.7487738,0,0,935.7173,0,1,1676829315.85709,1764234.496041,0,1.881332,99.14683,1676829319.880009,0,182416158,0,0,1,1676829319.851255,1,0.55,1
1676829323.992316,70,1676829323.001005,34.05294077045271,-117.819854714063,217.7841,0,1.472476,13.79266369640396,180,3.195210397717211,4.859543964932167,-9999,1676829323.98753,-30.1898193359375,34.77438354492188,-33.53524780273438,163.2346649169922,151.75244140625,12.17885112762451,1764237.361595667,0.098236083984375,1.232757568359375,-0.0817413330078125,1764237.356615667,-0.05428747460246086,-0.8827766180038452,-0.4039418697357178,1764237.336851667,-170.2454528808594,109.8151245117188,-316.4176025390625,1764237.316777667,-2.876993121464672,0.3601894532212296,-1.315017999107663,0.486911952495575,-1.19361400604248,-0.5752904415130615,0.04620617628097534,-0.00262296199798584,0.1370475292205811,2,0.06122463246794918,0.6147110306586629,-0.7863513442945844,-0.005790009426877796,0.08916977792978287,0.9674666523933411,-0.2367637902498245,-27.93971252441406,35.61053466796875,-34.55886840820312,-1,2,1764237.205980167,1,2,1676829323.824771,1676828598.712269,1215,0.7487738,0,0,935.7173,0,1,1676829315.85709,1764234.496041,0,1.881332,99.14683,1676829319.880009,0,182416158,0,0,1,1676829319.851255,1,0.55,1
1676829324.052827,71,1676829323.001005,34.05294077045271,-117.819854714063,217.7841,0,1.472476,13.79266369640396,180,3.195210397717211,4.859543964932167,-9999,1676829324.047336,-31.35685729980469,34.40357971191406,-33.10479736328125,164.1004333496094,152.6182098388672,12.18013954162598,1764237.421352667,0.7173309326171875,0.814788818359375,-0.3279266357421875,1764237.416372667,-0.2208727300167084,-0.00806458480656147,-0.309704065322876,1764237.396905667,-172.6073303222656,109.3516540527344,-315.8709716796875,1764237.376534667,-2.993449177119268,0.1894297554868633,-1.315774677162574,-0.1183905676007271,-0.4906292855739594,-0.3628336191177368,0.2254935503005981,0.1448146104812622,0.1365778595209122,2,0.0295826680916001,0.6125750186349828,-0.7898583440553353,0.0006278205843947005,0.04750140756368637,0.9676578640937805,-0.2477534264326096,-31.18978881835938,34.78665161132812,-33.37881469726562,-1,2,1764237.205980167,1,2,1676829323.824771,1676828598.712269,1215,0.7487738,0,0,935.7173,0,1,1676829315.85709,1764234.496041,0,1.881332,99.14683,1676829319.880009,0,182416158,0,0,1,1676829319.851255,1,0.55,1
1676829324.111847,72,1676829323.001005,34.05294077045271,-117.819854714063,217.7841,0,1.472476,13.79266369640396,180,3.195210397717211,4.859543964932167,-9999,1676829324.10712,-32.06022644042969,36.81438446044922,-31.2818603515625,161.0259246826172,149.543701171875,12.18136215209961,1764237.481110667,0.7202301025390625,1.096435546875,-0.0210418701171875,1764237.476130667,-0.3551857769489288,-0.3380294442176819,0.6466645002365112,1764237.456959667,-173.5091400146484,110.6746826171875,-314.0122680664062,1764237.436292667,-3.053517760453351,0.1272820108576475,-1.327506873310673,-0.6024721264839172,-1.10178005695343,0.06060400605201721,0.7163386344909668,-0.0924990177154541,-0.04546064138412476,2,0.022979865344189,0.6164397269602759,-0.7870536595749181,-0.004537087681328933,0.03057909198105335,0.9705508351325989,-0.2389479726552963,-31.74821472167969,35.01439666748047,-32.1221923828125,-1,2,1764237.205980167,1,2,1676829323.824771,1676828598.712269,1215,0.7487738,0,0,935.7173,0,1,1676829315.85709,1764234.496041,0,1.881332,99.14683,1676829319.880009,0,182416158,0,0,1,1676829319.851255,1,0.55,1
1676829324.171761,73,1676829324.001013,34.05294018680067,-117.8198513539418,217.6861,0,1.47283,13.79266520945889,180,3.173776753992056,4.873569343777564,-9999,1676829324.167186,-28.53759765625,40.3048095703125,-29.52847290039062,157.3846588134766,145.9024353027344,12.18277835845947,1764237.540867667,0.5023651123046875,1.259780883789062,0.02899169921875,1764237.535887667,-1.887150764465332,0.1745678186416626,1.955733895301819,1764237.517010667,-170.4847869873047,113.4942321777344,-313.2283325195312,1764237.496049667,-2.886582224890595,0.2552331286030936,-1.348356456954291,-0.4994187653064728,0.3855388760566711,0.8936876058578491,0.6665467023849487,0.1075235605239868,0.2227097302675247,2,0.01988434818925405,0.6267959518013315,-0.7786797558365056,0.0197276814264542,0.05569754168391228,0.9753621220588684,-0.2134628891944885,-31.25968933105469,37.3184814453125,-31.03158569335938,-1,2,1764237.205980167,1,2,1676829323.824771,1676828598.712269,1215,0.7487738,0,0,935.7173,0,1,1676829315.85709,1764234.496041,0,1.881332,99.14683,1676829319.880009,0,182416158,0,0,1,1676829319.851255,1,0.55,1
1676829324.231396,74,1676829324.001013,34.05294018680067,-117.8198513539418,217.6861,0,1.47283,13.79266520945889,180,3.173776753992056,4.873569343777564,-9999,1676829324.226667,-23.13720703125,45.84714508056641,-24.66302490234375,150.3913269042969,138.9091033935547,12.18450736999512,1764237.600625667,-0.2696685791015625,1.738555908203125,-0.04559326171875,1764237.595645667,-2.124846696853638,-0.09595742076635361,1.834717154502869,1764237.577062667,-165.3131103515625,119.7573547363281,-308.4393005371094,1764237.555807667,-2.270158979672174,0.8758210062289888,-1.373318863464688,-2.253402709960938,0.2249997407197952,1.822337746620178,0.1948122531175613,0.2979235053062439,0.1320614963769913,2,0.05498419679670291,0.658906632707731,-0.7484153131628555,0.05189689265820413,0.1506924480199814,0.9805645942687988,-0.1256375759840012,-26.48394775390625,42.28016662597656,-28.20977783203125,-1,2,1764237.205980167,1,2,1676829323.824771,1676828598.712269,1215,0.7487738,0,0,935.7173,0,1,1676829315.85709,1764234.496041,0,1.881332,99.14683,1676829319.880009,0,182416158,0,0,1,1676829319.851255,1,0.55,1
1676829324.291216,75,1676829324.001013,34.05294018680067,-117.8198513539418,217.6861,0,1.47283,13.79266520945889,180,3.173776753992056,4.873569343777564,-9999,1676829324.286311,-18.98509216308594,49.35075378417969,-18.1688232421875,139.3571014404297,127.874870300293,12.18644142150879,1764237.660382667,-0.13311767578125,1.064666748046875,0.152435302734375,1764237.655402667,-1.795732259750366,-1.114235997200012,1.399231791496277,1764237.637115667,-160.7910003662109,123.7926483154297,-302.5107421875,1764237.615564667,-1.54323181327174,1.581408921359226,-1.312021709840543,-1.984671354293823,-0.8117867708206177,1.79008424282074,-0.6456828713417053,0.8594523668289185,-0.07823145389556885,2,0.0852756893323886,0.7029124361578682,-0.6994295358174735,0.09716229418242614,0.2558818459510803,0.966704249382019,0.002715672133490443,-21.2880859375,47.29595947265625,-22.50634765625,-1,2,1764237.205980167,1,2,1676829323.824771,1676828598.712269,1215,0.7487738,0,0,935.7173,0,1,1676829315.85709,1764234.496041,0,1.881332,99.14683,1676829319.880009,0,182416158,0,0,1,1676829319.851255,1,0.55,1
1676829324.353695,76,1676829324.001013,34.05294018680067,-117.8198513539418,217.6861,0,1.47283,13.79266520945889,180,3.173776753992056,4.873569343777564,-9999,1676829324.346149,-15.56532287597656,51.23773193359375,-14.85394287109375,132.3821716308594,120.8999404907227,12.18832874298096,1764237.720140667,0.2959747314453125,0.624847412109375,-0.19976806640625,1764237.715160667,-0.250412255525589,0.05600681155920029,1.526410222053528,1764237.697170667,-158.015625,125.6361083984375,-297.5909118652344,1764237.675322667,-1.226826899820716,1.815134508583599,-1.20945073400628,-0.9400442838668823,-0.7464014887809753,1.03568959236145,-0.3346403539180756,0.01593309640884399,-0.008834116160869598,2,0.08696615194282759,0.7315731513619057,-0.6578954629653103,0.1562409899305661,0.3430326879024506,0.9354219436645508,0.0855247750878334,-18.16987609863281,49.98223114013672,-16.17037963867188,-1,2,1764237.205980167,1,2,1676829323.824771,1676828598.712269,1215,0.7487738,0,0,935.7173,0,1,1676829315.85709,1764234.496041,0,1.881332,99.14683,1676829319.880009,0,182416158,0,0,1,1676829319.851255,1,0.55,1
1676829324.410598,77,1676829324.001013,34.05294018680067,-117.8198513539418,217.6861,0,1.47283,13.79266520945889,180,3.173776753992056,4.873569343777564,-9999,1676829324.405808,-10.04412841796875,52.7491455078125,-12.41571044921875,129.5240020751953,118.0417785644531,12.19015216827393,1764237.779897667,0.3094635009765625,0.7011260986328125,-0.020599365234375,1764237.774917667,-0.9202145338058472,1.939178586006165,0.8298715949058533,1764237.757216667,-152.2695617675781,127.2025604248047,-295.9526062011719,1764237.735079667,-1.220748342181823,1.809811932112032,-1.128490114765965,-0.5798678994178772,0.7019906044006348,1.742981672286987,0.03023374080657959,-0.2820169925689697,-0.3305510282516479,2,0.1101478566219848,0.7338488509695542,-0.6437960679316017,0.1867083905243395,0.4158569872379303,0.903766930103302,0.1013333722949028,-13.679443359375,51.33184814453125,-14.22225952148438,-1,2,1764237.205980167,1,2,1676829323.824771,1676828598.712269,1215,0.7487738,0,0,935.7173,0,1,1676829315.85709,1764234.496041,0,1.881332,99.14683,1676829319.880009,0,182416158,0,0,1,1676829319.851255,1,0.55,1
1676829324.471775,78,1676829324.001013,34.05294018680067,-117.8198513539418,217.6861,0,1.47283,13.79266520945889,180,3.173776753992056,4.873569343777564,-9999,1676829324.465643,-6.696792602539062,52.84272003173828,-11.03460693359375,133.7427062988281,122.2604827880859,12.19180870056152,1764237.839655667,-0.2068023681640625,0.538726806640625,-0.0756072998046875,1764237.834675667,0.3941331803798676,0.9771676063537598,0.2931615710258484,1764237.817262667,-148.4203033447266,127.8796234130859,-293.581787109375,1764237.794837667,-1.160952168898932,1.955238168579263,-1.04801067159017,-0.6161702871322632,2.174391508102417,0.564689040184021,-0.3327088057994843,-0.211371898651123,-0.2016611248254776,2,0.1598369395154894,0.7537111615444354,-0.6123527452771143,0.1771884533183634,0.4628510177135468,0.8664316534996033,0.1872567236423492,-8.874114990234375,52.63967895507812,-11.46240234375,-1,2,1764237.205980167,1,2,1676829323.824771,1676828598.712269,1215,0.7487738,0,0,935.7173,0,1,1676829315.85709,1764234.496041,0,1.881332,99.14683,1676829319.880009,0,182416158,0,0,1,1676829319.851255,1,0.55,1
1676829324.530149,79,1676829324.001013,34.05294018680067,-117.8198513539418,217.6861,0,1.47283,13.79266520945889,180,3.173776753992056,4.873569343777564,-9999,1676829324.525386,-6.370864868164062,52.99234008789062,-12.10641479492188,137.9853363037109,126.5031127929688,12.18953990936279,1764237.899412667,0.0918426513671875,0.3801116943359375,0.0444183349609375,1764237.894432667,0.5739311575889587,0.6156789064407349,-0.7675989270210266,1764237.877314667,-147.141357421875,128.1951141357422,-294.5993041992188,1764237.854594667,-1.187648342798282,2.012895252306827,-1.031865846865469,0.6430158019065857,0.5785603523254395,0.0005846768617630005,-0.6661915183067322,-0.394589364528656,-0.2726898491382599,2,0.192531581212932,0.7567817306306572,-0.6058055069640249,0.1523568500707814,0.4638751447200775,0.858258068561554,0.2195739895105362,-6.509933471679688,52.87207794189453,-11.4522705078125,-1,2,1764237.205980167,1,2,1676829323.824771,1676828598.712269,1215,0.7487738,0,0,935.7173,0,1,1676829315.85709,1764234.496041,0,1.881332,99.14683,1676829319.880009,0,182416158,0,0,1,1676829319.851255,1,0.55,1
1676829324.58997,80,1676829324.001013,34.05294018680067,-117.8198513539418,217.6861,0,1.47283,13.79266520945889,180,3.173776753992056,4.873569343777564,-9999,1676829324.585078,-7.4437255859375,53.44606018066406,-13.62545776367188,140.8865356445312,129.4043121337891,12.19061756134033,1764237.959170667,1.357528686523438,1.1326904296875,1.304306030273438,1764237.954190667,0.5194287896156311,-0.8352586627006531,0.8798359632492065,1764237.937365667,-148.2958374023438,128.9439392089844,-296.2905883789062,1764237.914352667,-1.225455414029189,2.015606217111204,-1.07707036390748,0.6932897567749023,0.5469967126846313,-0.9591714143753052,-0.2783810794353485,-0.4302253127098083,-0.01678323745727539,2,0.1935677969873068,0.7513255099427917,-0.6183187480483153,0.125393000975439,0.4277951121330261,0.8805732131004333,0.2039170265197754,-7.138229370117188,53.33804321289062,-13.23941040039062,-1,2,1764237.205980167,1,2,1676829323.824771,1676828598.712269,1215,0.7487738,0,0,935.7173,0,1,1676829315.85709,1764234.496041,0,1.881332,99.14683,1676829319.880009,0,182416158,0,0,1,1676829319.851255,1,0.55,1
1676829324.649962,81,1676829324.001013,34.05294018680067,-117.8198513539418,217.6861,0,1.47283,13.79266520945889,180,3.173776753992056,4.873569343777564,-9999,1676829324.644906,-2.866668701171875,53.40812683105469,-15.37899780273438,136.7073822021484,125.2251510620117,12.1905574798584,1764238.018927667,0.74078369140625,0.5610504150390625,0.4325103759765625,1764238.013947667,-1.169220089912415,1.008516430854797,0.8051023483276367,1764237.997415667,-144.1800994873047,128.4403228759766,-298.3204345703125,1764237.974109667,-1.309431375822478,1.925746998761527,-1.076264290655557,1.69743025302887,-0.1892512291669846,2.107048749923706,1.323688626289368,0.8741274476051331,0.4929617643356323,2,0.1969841625634003,0.7373418041981995,-0.632357877792992,0.1328454156397151,0.4450339376926422,0.880190908908844,0.1649513989686966,-6.6429443359375,53.54368591308594,-14.45547485351562,-1,2,1764237.205980167,1,2,1676829323.824771,1676828598.712269,1215,0.7487738,0,0,935.7173,0,1,1676829315.85709,1764234.496041,0,1.881332,99.14683,1676829319.880009,0,182416158,0,0,1,1676829319.851255,1,0.55,1
1676829324.709469,82,1676829324.001013,34.05294018680067,-117.8198513539418,217.6861,0,1.47283,13.79266520945889,180,3.173776753992056,4.873569343777564,-9999,1676829324.704616,-0.5877685546875,53.1654052734375,-16.83474731445312,139.8943481445312,128.4121246337891,12.19211769104004,1764238.078685667,0.5449371337890625,1.501068115234375,0.094390869140625,1764238.073705667,0.8855026364326477,-0.1167439296841621,-0.5776138305664062,1764238.057463667,-141.8076019287109,127.8939208984375,-298.1492919921875,1764238.033867667,-1.330619197623436,1.928621891140558,-1.009442792460131,0.5522142052650452,0.376054584980011,0.4772731959819794,-0.1984593272209167,-0.4430930018424988,0.5332527160644531,2,0.2271264205907327,0.7359587126648131,-0.6205637555927568,0.147237932170224,0.4986149370670319,0.8465353846549988,0.1864432692527771,-1.491470336914062,53.61325073242188,-14.09304809570312,-1,2,1764237.205980167,1,2,1676829323.824771,1676828598.712269,1215,0.7487738,0,0,935.7173,0,1,1676829315.85709,1764235.496611,0,1.823212,99.14752,1676829319.880009,0,182416158,0,0,1,1676829319.851255,1,0.55,1
1676829324.769531,83,1676829324.001013,34.05294018680067,-117.8198513539418,217.6861,0,1.47283,13.79266520945889,180,3.173776753992056,4.873569343777564,-9999,1676829324.764317,0.4300079345703125,52.01152801513672,-17.42599487304688,145.2160034179688,133.7337799072266,12.19386959075928,1764238.138442667,-0.2378997802734375,0.504913330078125,-0.2621917724609375,1764238.133462667,2.18374228477478,0.6423293948173523,-1.864951491355896,1764238.117519667,-140.1262359619141,126.9967193603516,-299.5869750976562,1764238.093624667,-1.458475366551515,1.836274242517062,-1.031987928315697,-0.6618483662605286,1.52561628818512,1.349638342857361,0.5691628456115723,1.41610860824585,0.04536674916744232,2,0.2369987322747068,0.7149437120855452,-0.6442634981347429,0.1327086345979451,0.4951376616954803,0.8583207130432129,0.1346258223056793,-0.405731201171875,52.85707092285156,-17.19522094726562,-1,2,1764237.205980167,1,2,1676829323.824771,1676828598.712269,1215,0.7487738,0,0,935.7173,0,1,1676829315.85709,1764235.496611,0,1.823212,99.14752,1676829319.880009,0,182416158,0,0,1,1676829319.851255,1,0.55,1
1676829324.828991,84,1676829324.001013,34.05294018680067,-117.8198513539418,217.6861,0,1.47283,13.79266520945889,180,3.173776753992056,4.873569343777564,-9999,1676829324.824147,-7.163116455078125,51.20774078369141,-22.1329345703125,152.3146667480469,140.8324432373047,12.19568538665771,1764238.198200667,-0.7589263916015625,0.77374267578125,-0.3180084228515625,1764238.193220667,1.269119024276733,-1.304777979850769,-1.400892734527588,1764238.177575667,-147.2880859375,126.4041748046875,-304.3135986328125,1764238.153382667,-1.570988875159124,1.78668371402433,-1.115430295931713,1.574829339981079,-1.238862156867981,-2.955303192138672,-0.8457657694816589,-0.5537244081497192,-0.3376789093017578,2,0.232960890818398,0.7020213811336713,-0.6676612643380218,0.08440226697213613,0.4295823276042938,0.8981001377105713,0.09420958906412125,-0.9069671630859375,51.83777618408203,-19.4093017578125,-1,2,1764237.205980167,1,2,1676829323.824771,1676828598.712269,1215,0.7487738,0,0,935.7173,0,1,1676829315.85709,1764235.496611,0,1.823212,99.14752,1676829319.880009,0,182416158,0,0,1,1676829319.851255,1,0.55,1
1676829324.8896,85,1676829324.001013,34.05294018680067,-117.8198513539418,217.6861,0,1.47283,13.79266520945889,180,3.173776753992056,4.873569343777564,-9999,1676829324.883939,-7.893997192382812,49.96421813964844,-25.55331420898438,154.0240783691406,142.5418548583984,12.19677925109863,1764238.257957625,0.3220672607421875,1.138870239257812,-0.504150390625,1764238.252978667,0.7409012913703918,0.5873340964317322,0.07105473428964615,1764238.237626667,-149.0717620849609,125.0744171142578,-307.8044738769531,1764238.213139667,-1.749572069168075,1.547755458611547,-1.234928775324588,1.074130415916443,-0.0641377791762352,-0.1531351804733276,-0.987398624420166,0.05981194972991943,-0.2789210081100464,2,0.1718197787538985,0.6831407623101088,-0.706952941465427,0.06335711979555614,0.3295006453990936,0.9441247582435608,-0.00759332487359643,-8.768890380859375,50.62461090087891,-23.45989990234375,-1,2,1764237.205980167,1,2,1676829323.824771,1676828598.712269,1215,0.7487738,0,0,935.7173,0,1,1676829315.85709,1764235.496611,0,1.823212,99.14752,1676829319.880009,0,182416158,0,0,1,1676829319.851255,1,0.55,1
1676829324.948698,86,1676829324.001013,34.05294018680067,-117.8198513539418,217.6861,0,1.47283,13.79266520945889,180,3.173776753992056,4.873569343777564,-9999,1676829324.943929,-10.51144409179688,49.77935791015625,-26.0980224609375,155.2692565917969,143.7870330810547,12.19797706604004,1764238.317715625,0.4858245849609375,0.9790802001953125,-0.054962158203125,1764238.312735625,-0.2801088988780975,-1.227555274963379,-0.9813966751098633,1764238.297680625,-150.75,124.7854919433594,-308.7858276367188,1764238.272897625,-1.894551828033622,1.4384035025511,-1.227733699920457,0.4240806698799133,-0.4629116952419281,-1.113409638404846,0.1552945375442505,0.207074761390686,-0.4665677547454834,2,0.1841337710987526,0.6662530067068885,-0.7208326900950985,0.05100909756315264,0.333429217338562,0.9417288899421692,-0.04440337046980858,-7.36383056640625,49.73340606689453,-26.13247680664062,-1,2,1764237.205980167,1,2,1676829323.824771,1676828598.712269,1215,0.7487738,0,0,935.7173,0,1,1676829315.85709,1764235.496611,0,1.823212,99.14752,1676829319.880009,0,182416158,0,0,1,1676829319.851255,1,0.55,1
1676829325.01029,87,1676829324.001013,34.05294018680067,-117.8198513539418,217.6861,0,1.47283,13.79266520945889,180,3.173776753992056,4.873569343777564,-9999,1676829325.003398,-13.58332824707031,49.36532592773438,-25.5543212890625,155.6060485839844,144.1238250732422,12.19931507110596,1764238.377472625,0.3343353271484375,0.7977752685546875,0.137359619140625,1764238.372493625,0.644135594367981,-0.2931724786758423,-0.7241705060005188,1764238.357732625,-154.3840942382812,124.6186828613281,-307.6866149902344,1764238.332654625,-1.913782879717948,1.353490615937274,-1.294196112437235,-0.09777983278036118,-0.7561619281768799,-0.7755154371261597,0.299803614616394,0.0376899242401123,0.0787135437130928,2,0.1376630346307396,0.6720195505008589,-0.7259259369439478,0.04969893133760306,0.2666636407375336,0.9619894027709961,-0.05887722596526146,-11.90737915039062,49.78453063964844,-25.59518432617188,-1,2,1764237.205980167,1,2,1676829323.824771,1676828598.712269,1215,0.7487738,0,0,935.7173,0,1,1676829315.85709,1764235.496611,0,1.823212,99.14752,1676829319.880009,0,182416158,0,0,1,1676829319.851255,1,0.55,1
1676829325.06817,88,1676829324.001013,34.05294018680067,-117.8198513539418,217.6861,0,1.47283,13.79266520945889,180,3.173776753992056,4.873569343777564,-9999,1676829325.06337,-14.94720458984375,47.97499084472656,-28.26348876953125,158.3887634277344,146.9065399169922,12.20049381256104,1764238.437230625,0.28082275390625,0.8896331787109375,-0.1319122314453125,1764238.432250625,0.6849749088287354,-0.6255751848220825,-0.7658212780952454,1764238.417788625,-155.9975738525391,123.0462036132812,-310.3087768554688,1764238.392412625,-2.056653314188529,1.185694099587623,-1.329268900487122,1.039006948471069,0.2088563591241837,-0.6440052390098572,0.07304039597511292,-0.1865042448043823,0.1557842493057251,2,0.1125827472920998,0.6651312551639084,-0.7370013409875786,0.04188690335075512,0.2216678559780121,0.970973789691925,-0.08985107392072678,-14.422119140625,49.13442230224609,-26.4078369140625,-1,2,1764237.205980167,1,2,1676829323.824771,1676828598.712269,1215,0.7487738,0,0,935.7173,0,1,1676829315.85709,1764235.496611,0,1.823212,99.14752,1676829319.880009,0,182416158,0,0,1,1676829319.851255,1,0.55,1
1676829325.129214,89,1676829324.001013,34.05294018680067,-117.8198513539418,217.6861,0,1.47283,13.79266520945889,180,3.173776753992056,4.873569343777564,-9999,1676829325.12292,-17.02862548828125,46.75348663330078,-30.77850341796875,162.2276458740234,150.7454223632812,12.20141220092773,1764238.496987625,0.288818359375,0.8977508544921875,-0.210784912109375,1764238.492008625,1.193274021148682,0.618886411190033,-0.942632794380188,1764238.477839625,-157.7190551757812,121.8831024169922,-312.4507751464844,1764238.452169625,-2.341086915501037,0.8972314836187127,-1.340436557299903,0.7230409383773804,-0.0003574807196855545,-0.7150310873985291,0.1273857206106186,-0.08010601997375488,0.05145229399204254,2,0.09494972621948983,0.6478980969461687,-0.7553023839224047,0.02703347283368013,0.1784613877534866,0.9735842943191528,-0.1424252092838287,-15.90859985351562,47.84642028808594,-28.45147705078125,-1,2,1764237.205980167,1,2,1676829323.824771,1676828598.712269,1215,0.7487738,0,0,935.7173,0,1,1676829315.85709,1764235.496611,0,1.823212,99.14752,1676829319.880009,0,182416158,0,0,1,1676829319.851255,1,0.55,1
1676829325.187743,90,1676829325.001023,34.05295543614581,-117.8198445664697,217.5492,0.7373216,1.424401,32.13836710900866,95.23521700091582,3.160997302507139,4.881867786650046,-9999,1676829325.162814,-17.84819030761719,45.3531494140625,-32.6478271484375,164.5611419677734,153.0789184570312,12.20193290710449,1764238.556745625,0.071502685546875,1.09002685546875,-0.1652374267578125,1764238.551765625,0.1602165699005127,-2.762425422668457,-0.4592882394790649,1764238.537889625,-159.1525421142578,119.695068359375,-315.4034729003906,1764238.511927625,-2.688606557855315,0.5880395156208673,-1.328827623297856,1.256716370582581,0.1361796408891678,-0.8531460762023926,0.1208321154117584,-0.01667505502700806,-0.02505999803543091,2,0.08980543904996036,0.6263001038207858,-0.7743764767717586,-0.004921701973945314,0.1329215168952942,0.9708681106567383,-0.1993663311004639,-17.24900817871094,46.05743408203125,-31.37823486328125,-1,2,1764237.205980167,1,2,1676829323.824771,1676828598.712269,1215,0.7487738,0,0,935.7173,0,1,1676829315.85709,1764235.496611,0,1.823212,99.14752,1676829319.880009,0,182416158,0,0,1,1676829319.851255,1,0.55,1
1676829325.247159,91,1676829325.001023,34.05295543614581,-117.8198445664697,217.5492,0.7373216,1.424401,32.13836710900866,95.23521700091582,3.160997302507139,4.881867786650046,-9999,1676829325.242445,-22.57133483886719,44.08402252197266,-30.50900268554688,159.7669372558594,148.2847137451172,12.20330238342285,1764238.616503625,0.6091766357421875,0.8958587646484375,0.0067138671875,1764238.611523625,-0.2617405354976654,0.6296114921569824,-0.3316509127616882,1764238.597937625,-163.619873046875,119.1112518310547,-313.4254150390625,1764238.571684625,-2.872380067255069,0.3091416160690043,-1.314844406406031,-0.2894667685031891,-2.779758930206299,-0.1949211806058884,-0.003430493175983429,0.1372982859611511,0.2330473214387894,2,0.03973550657397834,0.6146857409332906,-0.7876832013531537,0.01173414934360245,0.07702361047267914,0.9674227237701416,-0.2411650568246841,-20.64080810546875,44.18794250488281,-31.92816162109375,-1,2,1764237.205980167,1,2,1676829323.824771,1676828598.712269,1215,0.7487738,0,0,935.7173,0,1,1676829315.85709,1764235.496611,0,1.823212,99.14752,1676829319.880009,0,182416158,0,0,1,1676829319.851255,1,0.55,1
1676829325.307081,92,1676829325.001023,34.05295543614581,-117.8198445664697,217.5492,0.7373216,1.424401,32.13836710900866,95.23521700091582,3.160997302507139,4.881867786650046,-9999,1676829325.302338,-21.91065979003906,44.53993225097656,-28.90283203125,161.0794219970703,149.5971984863281,12.20415210723877,1764238.676260625,0.7147064208984375,1.049545288085938,-0.1701202392578125,1764238.671280625,-0.2376160174608231,-0.1917915344238281,0.1137039288878441,1764238.657987625,-162.9887084960938,119.5229187011719,-311.3482055664062,1764238.631442625,-2.916712126229492,0.233109403727084,-1.339524268703806,-0.4890602827072144,0.5449343919754028,-0.2990360260009766,0.6677380800247192,-0.09170758724212646,0.07819479703903198,2,0.02140961354755416,0.6229234395641543,-0.7818335260610353,0.01562970227174165,0.05294972285628319,0.9733756184577942,-0.2230160385370255,-22.64329528808594,44.25408172607422,-29.67428588867188,-1,2,1764237.205980167,1,2,1676829323.824771,1676828598.712269,1215,0.7487738,0,0,935.7173,0,1,1676829315.85709,1764235.496611,0,1.823212,99.14752,1676829319.880009,0,182416158,0,0,1,1676829319.851255,1,0.55,1
1676829325.366781,93,1676829325.001023,34.05295543614581,-117.8198445664697,217.5492,0.7373216,1.424401,32.13836710900866,95.23521700091582,3.160997302507139,4.881867786650046,-9999,1676829325.362126,-19.18215942382812,44.97490692138672,-27.14370727539062,156.5666656494141,145.0844421386719,12.20517921447754,1764238.736018625,0.6344451904296875,1.074310302734375,-0.03814697265625,1764238.731038625,-1.108623862266541,-1.902238368988037,1.386926293373108,1764238.718037625,-160.4661865234375,120.2220764160156,-309.9130859375,1764238.691199625,-2.880527910186209,0.2670572111521131,-1.357864534881003,-0.1432744860649109,-0.3996981978416443,0.4443229138851166,0.5820801258087158,0.07556289434432983,0.08434338867664337,2,0.02171860023662114,0.6305638679703423,-0.7756358852220906,0.01750519295867753,0.0557677373290062,0.9774155616760254,-0.2038350254297256,-21.357666015625,44.52239990234375,-28.3392333984375,-1,2,1764237.205980167,1,2,1676829323.824771,1676828598.712269,1215,0.7487738,0,0,935.7173,0,1,1676829315.85709,1764235.496611,0,1.823212,99.14752,1676829319.880009,0,182416158,0,0,1,1676829319.851255,1,0.55,1
1676829325.426549,94,1676829325.001023,34.05295543614581,-117.8198445664697,217.5492,0.7373216,1.424401,32.13836710900866,95.23521700091582,3.160997302507139,4.881867786650046,-9999,1676829325.421834,-15.08969116210938,47.42928314208984,-20.69357299804688,145.7581787109375,134.2759552001953,12.20655059814453,1764238.795775625,0.0896453857421875,1.533157348632812,0.2387237548828125,1764238.790795625,-2.368075609207153,-0.2566549479961395,2.034831047058105,1764238.778090625,-156.7614288330078,122.0390930175781,-304.3567199707031,1764238.750957625,-2.476602329869413,0.585081404488826,-1.374194776545983,-1.854356288909912,-1.521063208580017,1.8933265209198,0.4618086218833923,0.07749134302139282,0.2471508532762527,2,0.01249807172060657,0.646854514726079,-0.7594085286011204,0.06871403317325031,0.107878252863884,0.9807360768318176,-0.1628460735082626,-18.66172790527344,45.76160430908203,-25.19036865234375,-1,2,1764237.205980167,1,2,1676829323.824771,1676828598.712269,1215,0.7487738,0,0,935.7173,0,1,1676829315.85709,1764235.496611,0,1.823212,99.14752,1676829319.880009,0,182416158,0,0,1,1676829319.851255,1,0.55,1
1676829325.488604,95,1676829325.001023,34.05295543614581,-117.8198445664697,217.5492,0.7373216,1.424401,32.13836710900866,95.23521700091582,3.160997302507139,4.881867786650046,-9999,1676829325.481589,-9.883880615234375,47.67279815673828,-16.05355834960938,137.1004180908203,125.6181869506836,12.2082405090332,1764238.855533625,-0.19744873046875,1.491348266601562,-0.25164794921875,1764238.850553625,-1.194641590118408,-1.688406586647034,1.559373259544373,1764238.838146625,-151.4862518310547,122.4340667724609,-298.9534301757812,1764238.810715625,-1.610278237897087,1.402614295804771,-1.342962426706891,-1.773536562919617,0.1615066826343536,1.898602962493896,-0.221765547990799,0.8044980764389038,0.2369657754898071,2,0.03476822258774404,0.6927388562683886,-0.7094003526026109,0.1251206511470224,0.2226810455322266,0.9741579294204712,-0.03780809417366982,-13.14448547363281,47.60511016845703,-18.41793823242188,-1,2,1764237.205980167,1,2,1676829323.824771,1676828598.712269,1215,0.7487738,0,0,935.7173,0,1,1676829315.85709,1764235.496611,0,1.823212,99.14752,1676829319.880009,0,182416158,0,0,1,1676829319.851255,1,0.55,1
1676829325.546004,96,1676829325.001023,34.05295543614581,-117.8198445664697,217.5492,0.7373216,1.424401,32.13836710900866,95.23521700091582,3.160997302507139,4.881867786650046,-9999,1676829325.541462,-7.487594604492188,47.05050659179688,-11.8743896484375,129.4414215087891,117.9591979980469,12.21007442474365,1764238.915290625,0.23687744140625,0.767364501953125,-0.1050872802734375,1764238.910311625,-0.6935006976127625,1.364731073379517,0.7237518429756165,1764238.898202625,-148.772705078125,122.1010894775391,-295.1069030761719,1764238.870472625,-1.31015729951236,1.632769677472195,-1.245922659594946,-1.293968915939331,-1.601361393928528,1.473858237266541,-0.4286528527736664,0.1841599345207214,-0.1222924068570137,2,0.04367100446642308,0.7127251265678128,-0.6759923824750446,0.1820710891086686,0.3185757994651794,0.9476910829544067,0.01976852491497993,-9.09295654296875,47.38677215576172,-14.66604614257812,-1,2,1764237.205980167,1,2,1676829323.824771,1676828598.712269,1215,0.7487738,0,0,935.7173,0,1,1676829315.85709,1764235.496611,0,1.823212,99.14752,1676829319.880009,0,182416158,0,0,1,1676829319.851255,1,0.55,1
1676829325.607368,97,1676829325.001023,34.05295543614581,-117.8198445664697,217.5492,0.7373216,1.424401,32.13836710900866,95.23521700091582,3.160997302507139,4.881867786650046,-9999,1676829325.601159,-3.590072631835938,46.12913513183594,-9.770782470703125,127.8521575927734,116.3699340820312,12.21183776855469,1764238.975048625,0.4724273681640625,0.8200836181640625,-0.0647430419921875,1764238.970068625,-0.5098632574081421,0.57921302318573,1.416533827781677,1764238.958260625,-144.9036712646484,121.2593231201172,-292.1589660644531,1764238.930230625,-1.174361330781575,1.787522014514431,-1.180662823241053,-0.6249352097511292,1.512147545814514,1.053820848464966,-0.07228174805641174,-0.2381212711334229,-0.2949450016021729,2,0.06842103589513121,0.7322624964464084,-0.6495330872608713,0.1929168752599937,0.3714150488376617,0.9248582720756531,0.0817796066403389,-6.52362060546875,46.90776062011719,-11.46194458007812,-1,2,1764237.205980167,1,2,1676829323.824771,1676828598.712269,1215,0.7487738,0,0,935.7173,0,1,1676829315.85709,1764235.496611,0,1.823212,99.14752,1676829319.880009,0,182416158,0,0,1,1676829319.851255,1,0.55,1
1676829325.665659,98,1676829325.001023,34.05295543614581,-117.8198445664697,217.5492,0.7373216,1.424401,32.13836710900866,95.23521700091582,3.160997302507139,4.881867786650046,-9999,1676829325.660933,-1.39312744140625,45.58457183837891,-8.324310302734375,131.1224517822266,119.6402206420898,12.21352291107178,1764239.034805625,-0.147674560546875,0.6256256103515625,-0.20623779296875,1764239.029826625,0.3187220692634583,1.575096845626831,0.4057461619377136,1764239.018315625,-142.55615234375,120.6563568115234,-291.2587280273438,1764238.989987625,-1.147737775020774,1.866981195566824,-1.092544042353084,-0.3570398986339569,1.726083755493164,0.8539720177650452,-0.1273071467876434,-0.04287570714950562,-0.03552770614624023,2,0.113216085043131,0.7445443625536695,-0.6266645494075064,0.2003182170576115,0.4401886165142059,0.8878006339073181,0.1343283802270889,-2.980850219726562,46.03270721435547,-9.574737548828125,-1,2,1764237.205980167,1,2,1676829323.824771,1676828598.712269,1215,0.7487738,0,0,935.7173,0,1,1676829315.85709,1764235.496611,0,1.823212,99.14752,1676829319.880009,0,182416158,0,0,1,1676829319.851255,1,0.55,1
1676829325.729459,99,1676829325.001023,34.05295543614581,-117.8198445664697,217.5492,0.7373216,1.424401,32.13836710900866,95.23521700091582,3.160997302507139,4.881867786650046,-9999,1676829325.720731,-0.5135650634765625,44.52932739257812,-9.641693115234375,134.4187164306641,122.9364929199219,12.21452808380127,1764239.094563625,-0.162322998046875,0.4244842529296875,-0.1361846923828125,1764239.089583625,0.4833775758743286,0.4756962358951569,-0.2400733232498169,1764239.078370625,-141.7581176757812,119.4739990234375,-292.0030517578125,1764239.049745625,-1.181378331542394,1.943644473324802,-1.066478043637284,0.6505939960479736,0.7175108790397644,0.1573657989501953,-0.6555929183959961,-0.3331456780433655,-0.4228909015655518,2,0.1580876198222511,0.7503450960435009,-0.6190983756009006,0.1694337910319897,0.4500111937522888,0.8755040764808655,0.1760189235210419,-0.6974639892578125,45.00258636474609,-8.490203857421875,-1,2,1764237.205980167,1,2,1676829323.824771,1676828598.712269,1215,0.7487738,0,0,935.7173,0,1,1676829315.85709,1764236.497184,0,1.757141,99.14829,1676829319.880009,0,182416158,0,0,1,1676829319.851255,1,0.55,1
1676829325.785719,100,1676829325.001023,34.05295543614581,-117.8198445664697,217.5492,0.7373216,1.424401,32.13836710900866,95.23521700091582,3.160997302507139,4.881867786650046,-9999,1676829325.780419,-1.669281005859375,44.16823577880859,-10.62347412109375,139.7169952392578,128.2347717285156,12.21212291717529,1764239.154321625,0.3332977294921875,0.75482177734375,0.4392852783203125,1764239.149341625,0.1553067713975906,0.7697478532791138,-0.951082706451416,1764239.138426625,-142.5897521972656,119.2992858886719,-293.26513671875,1764239.109502625,-1.242629634364336,1.917986473922202,-1.08690153572728,0.5630264282226562,0.5261382460594177,-0.4983199834823608,-0.5253465175628662,-0.4709593653678894,-0.2338746935129166,2,0.1663805255532515,0.7426078593921577,-0.6303521086533578,0.153320809733092,0.4374711215496063,0.8851896524429321,0.1582978218793869,-0.9219512939453125,44.42478942871094,-9.797332763671875,-1,2,1764237.205980167,1,2,1676829323.824771,1676828598.712269,1215,0.7487738,0,0,935.7173,0,1,1676829315.85709,1764236.497184,0,1.757141,99.14829,1676829319.880009,0,182416158,0,0,1,1676829319.851255,1,0.55,1
1676829325.845785,101,1676829325.001023,34.05295543614581,-117.8198445664697,217.5492,0.7373216,1.424401,32.13836710900866,95.23521700091582,3.160997302507139,4.881867786650046,-9999,1676829325.840365,-0.33880615234375,43.21733856201172,-11.43548583984375,134.457275390625,122.9750442504883,12.21220302581787,1764239.214078625,2.403152465820312,1.834884643554688,-0.002532958984375,1764239.209098625,1.209770441055298,-1.1972815990448,2.003784418106079,1764239.198483625,-142.0120697021484,118.4211273193359,-293.5989379882812,1764239.169260625,-1.245263317279869,1.94635247408188,-1.131996026725598,-0.78837651014328,-0.7092557549476624,-0.03529615700244904,0.3183038532733917,0.02231967449188232,0.775930643081665,2,0.1617986803374797,0.7427901363146165,-0.6370903883870622,0.1272782362466587,0.3952428102493286,0.9052619934082031,0.1558319926261902,-1.525924682617188,44.21548461914062,-10.40692138671875,-1,2,1764237.205980167,1,2,1676829323.824771,1676828598.712269,1215,0.7487738,0,0,935.7173,0,1,1676829315.85709,1764236.497184,0,1.757141,99.14829,1676829319.880009,0,182416158,0,0,1,1676829319.851255,1,0.55,1
1676829325.904595,102,1676829325.001023,34.05295543614581,-117.8198445664697,217.5492,0.7373216,1.424401,32.13836710900866,95.23521700091582,3.160997302507139,4.881867786650046,-9999,1676829325.899993,1.826614379882812,41.36097717285156,-11.9462890625,134.8161773681641,123.3339462280273,12.21362686157227,1764239.2738375,0.34002685546875,0.2991790771484375,0.1298675537109375,1764239.2688575,2.012160301208496,1.390574932098389,-0.06399495899677277,1764239.258539625,-139.0625152587891,116.5177612304688,-293.9340209960938,1764239.229018625,-1.365023086027625,1.786398665707683,-1.049995169671214,-0.1416382342576981,0.6598880290985107,1.030427694320679,1.215360879898071,0.1012070775032043,-0.003208279609680176,2,0.1813892970050177,0.7213338425689435,-0.6451857154485146,0.1746733723661912,0.4860551953315735,0.8674207925796509,0.1064491793513298,0.8585052490234375,42.51860046386719,-11.73504638671875,-1,2,1764237.205980167,1,2,1676829323.824771,1676828598.712269,1215,0.7487738,0,0,935.7173,0,1,1676829315.85709,1764236.497184,0,1.757141,99.14829,1676829319.880009,0,182416158,0,0,1,1676829319.851255,1,0.55,1
1676829325.966675,103,1676829325.001023,34.05295543614581,-117.8198445664697,217.5492,0.7373216,1.424401,32.13836710900866,95.23521700091582,3.160997302507139,4.881867786650046,-9999,1676829325.96041,1.069259643554688,40.80623626708984,-13.13265991210938,140.6834259033203,129.2012023925781,12.21493721008301,1764239.3335945,1.0244140625,2.736770629882812,0.3231658935546875,1764239.3286145,-1.114511847496033,2.887228012084961,1.314403653144836,1764239.3185965,-140.4856109619141,115.9248809814453,-296.3828125,1764239.2887765,-1.50340318521395,1.741893921939138,-1.054551602529526,3.25767970085144,0.5348888635635376,-1.381572842597961,-0.1050472855567932,-0.2015424370765686,-0.2479400634765625,2,0.2146527321797742,0.7042349566659583,-0.6612893222673982,0.1437837189518529,0.4864101707935333,0.8696789741516113,0.08404533565044403,1.950271606445312,41.13062286376953,-13.88565063476562,-1,2,1764237.205980167,1,2,1676829323.824771,1676828598.712269,1215,0.7487738,0,0,935.7173,0,1,1676829315.85709,1764236.497184,0,1.757141,99.14829,1676829319.880009,0,182416158,0,0,1,1676829319.851255,1,0.55,1
1676829326.024273,104,1676829325.001023,34.05295543614581,-117.8198445664697,217.5492,0.7373216,1.424401,32.13836710900866,95.23521700091582,3.160997302507139,4.881867786650046,-9999,1676829326.019495,-0.5723876953125,40.24766540527344,-16.1964111328125,150.4940338134766,139.0118103027344,12.2168025970459,1764239.3933525,-0.4125213623046875,0.2387237548828125,-0.184906005859375,1764239.3883725,1.932191252708435,-1.483522891998291,-2.889715909957886,1764239.3786505,-140.6073913574219,115.1345520019531,-298.0145263671875,1764239.3485345,-1.48180223359913,1.850618217372772,-1.050270977161532,1.342958688735962,2.220826387405396,-0.3436223566532135,0.1501514613628387,0.7910723090171814,-0.1701934486627579,2,0.2439745266413465,0.7135507342693514,-0.6468196445573107,0.1137808140382137,0.4779917895793915,0.8675580024719238,0.1373564451932907,1.746856689453125,40.47077941894531,-12.83209228515625,-1,2,1764237.205980167,1,2,1676829323.824771,1676828598.712269,1215,0.7487738,0,0,935.7173,0,1,1676829315.85709,1764236.497184,0,1.757141,99.14829,1676829319.880009,0,182416158,0,0,1,1676829319.851255,1,0.55,1
1676829326.088763,105,1676829325.001023,34.05295543614581,-117.8198445664697,217.5492,0.7373216,1.424401,32.13836710900866,95.23521700091582,3.160997302507139,4.881867786650046,-9999,1676829326.079172,-5.455886840820312,38.29204559326172,-20.50216674804688,153.2725830078125,141.7903594970703,12.2182149887085,1764239.4531095,-0.7013092041015625,1.068710327148438,-0.380584716796875,1764239.4481305,0.6391858458518982,0.5481951832771301,0.6007790565490723,1764239.4387055,-146.6630249023438,113.6135864257812,-303.0265502929688,1764239.4082915,-1.694050660116277,1.638130848097656,-1.197837041063671,1.762291669845581,-1.76374077796936,-2.085340261459351,-0.9372014999389648,-0.6307312846183777,-0.2116959095001221,2,0.1971617464325754,0.6880301016290489,-0.6953601320340028,0.06493212723401709,0.3635473549365997,0.9312531352043152,0.02451634965837002,-3.275054931640625,39.59590148925781,-17.53961181640625,-1,2,1764237.205980167,1,2,1676829323.824771,1676828598.712269,1215,0.7487738,0,0,935.7173,0,1,1676829315.85709,1764236.497184,0,1.757141,99.14829,1676829319.880009,0,182416158,0,0,1,1676829319.851255,1,0.55,1
1676829326.143797,106,1676829325.001023,34.05295543614581,-117.8198445664697,217.5492,0.7373216,1.424401,32.13836710900866,95.23521700091582,3.160997302507139,4.881867786650046,-9999,1676829326.139037,-4.072235107421875,37.87564849853516,-21.3221435546875,153.2287139892578,141.7464904785156,12.21897506713867,1764239.5128675,0.5731048583984375,1.039459228515625,-0.391265869140625,1764239.5078875,-0.1336997449398041,-1.021948933601379,-1.460600614547729,1764239.4987585,-144.7782897949219,112.6863403320312,-303.9574890136719,1764239.4680495,-1.855186275457505,1.473513098986916,-1.20547030958217,0.3332656025886536,1.027776002883911,1.057178735733032,-0.7514846324920654,0.2767928838729858,-0.3987106680870056,2,0.1910701221411037,0.6679387642052443,-0.7166658525772449,0.06115678282204734,0.3555648326873779,0.9340073466300964,-0.03470003232359886,-4.55670166015625,38.05574798583984,-20.88131713867188,-1,2,1764237.205980167,1,2,1676829323.824771,1676828598.712269,1215,0.7487738,0,0,935.7173,0,1,1676829315.85709,1764236.497184,0,1.757141,99.14829,1676829319.880009,0,182416158,0,0,1,1676829319.851255,1,0.55,1
1676829326.210061,107,1676829326.00103,34.05296377888952,-117.8198375845768,217.7114,0.7777559,1.340747,33.23604177546846,71.50342902761194,3.155655415867294,4.885322500009211,-9999,1676829326.198755,-8.052886962890625,37.84703826904297,-20.8345947265625,159.8292846679688,148.3470611572266,12.2201623916626,1764239.5726255,0.4370574951171875,0.9870147705078125,0.091156005859375,1764239.5676455,0.5773805379867554,2.157371759414673,-1.281934142112732,1764239.5588105,-149.2573547363281,113.3093109130859,-303.1151733398438,1764239.5278065,-1.86889903258947,1.436594367729841,-1.24302589215979,-0.2648102939128876,-0.7368080019950867,-2.07912278175354,0.1851125061511993,-0.09965568780899048,-0.1848766803741455,2,0.169789113808676,0.6705478758722019,-0.7200337379411668,0.05557399991292622,0.3190378248691559,0.9467624425888062,-0.04307440668344498,-5.742721557617188,38.05795288085938,-20.75006103515625,-1,2,1764237.205980167,1,2,1676829323.824771,1676828598.712269,1215,0.7487738,0,0,935.7173,0,1,1676829315.85709,1764236.497184,0,1.757141,99.14829,1676829319.880009,0,182416158,0,0,1,1676829319.851255,1,0.55,1
