loggingTime,loggingSample,locationTimestamp_since1970,locationLatitude,locationLongitude,locationAltitude,locationSpeed,locationSpeedAccuracy,locationCourse,locationCourseAccuracy,locationVerticalAccuracy,locationHorizontalAccuracy,locationFloor,locationHeadingTimestamp_since1970,locationHeadingX,locationHeadingY,locationHeadingZ,locationTrueHeading,locationMagneticHeading,locationHeadingAccuracy,accelerometerTimestamp_sinceReboot,accelerometerAccelerationX,accelerometerAccelerationY,accelerometerAccelerationZ,gyroTimestamp_sinceReboot,gyroRotationX,gyroRotationY,gyroRotationZ,magnetometerTimestamp_sinceReboot,magnetometerX,magnetometerY,magnetometerZ,motionTimestamp_sinceReboot,motionYaw,motionRoll,motionPitch,motionRotationRateX,motionRotationRateY,motionRotationRateZ,motionUserAccelerationX,motionUserAccelerationY,motionUserAccelerationZ,motionAttitudeReferenceFrame,motionQuaternionX,motionQuaternionY,motionQuaternionZ,motionQuaternionW,motionGravityX,motionGravityY,motionGravityZ,motionMagneticFieldX,motionMagneticFieldY,motionMagneticFieldZ,motionHeading,motionMagneticFieldCalibrationAccuracy,activityTimestamp_sinceReboot,activity,activityActivityConfidence,activityActivityStartDate,pedometerStartDate,pedometerNumberofSteps,pedometerAverageActivePace,pedometerCurrentPace,pedometerCurrentCadence,pedometerDistance,pedometerFloorAscended,pedometerFloorDescended,pedometerEndDate,altimeterTimestamp_sinceReboot,altimeterReset,altimeterRelativeAltitude,altimeterPressure,IP_Timestamp_since1970,IP_en0,IP_pdp_ip0,deviceID,deviceOrientationTimeStamp_since1970,deviceOrientation,batteryTimeStamp_since1970,batteryState,batteryLevel,label
1676669915.747653,1,1676669914.982703,34.21408530340011,-118.3864399136202,246.0308,0,1.474457,351.1045339269389,180,1.545136572282357,6.239553242642228,-9999,1676669915.733724,25.84992218017578,-1.964385986328125,-33.6090087890625,292.5835266113281,280.9447326660156,12.23799610137939,1677634.177933375,0.12103271484375,-0.21307373046875,-1.05120849609375,1677634.153036375,-0.06676971167325974,-0.02638500183820724,0.2399697154760361,1677634.158680375,-111.4525604248047,87.19265747070312,-322.2970886230469,1677634.141833375,1.115683153980977,0.06230508470050004,0.1987738686989648,0.04547355324029922,0.1835569590330124,0.1798803061246872,0.03127695620059967,-0.04185131192207336,-0.08204799890518188,2,0.06773349047877143,0.07879417607697656,0.5291104262524697,0.8421672237872707,0.06103875115513802,-0.1974674910306931,-0.9784073233604431,25.60874938964844,-2.265548706054688,-34.05191040039062,-1,2,1677634.111956375,4,2,1676669915.666442,1676669834.051682,104,1.104312,1.157197,1.679942,60.36,0,0,1676669908.974066,1677631.508012,0,-0.2061005,98.58089,0,0,0,0,0,1,1676669915.725558,1,0.39,1
1676669915.798145,2,1676669914.982703,34.21408530340011,-118.3864399136202,246.0308,0,1.474457,351.1045339269389,180,1.545136572282357,6.239553242642228,-9999,1676669915.793681,24.92765045166016,-1.415367126464844,-34.17767333984375,292.5220947265625,280.88330078125,12.23824310302734,1677634.237684,0.0446929931640625,-0.15167236328125,-1.002182006835938,1677634.212787,-0.5466934442520142,-0.2666657865047455,0.03053314238786697,1677634.218729,-112.4189758300781,87.3525390625,-322.0755920410156,1677634.201586375,1.131360394090311,0.04554749791232229,0.1854839787896954,-0.4866902828216553,-0.2939178347587585,0.1178834587335587,0.06793544441461563,0.009022489190101624,-0.009077966213226318,2,0.06600957259203381,0.06876656189848396,0.5353287442966769,0.8392479564012305,0.04475075006484985,-0.1844222396612167,-0.9818277955055237,25.28042602539062,-1.689262390136719,-33.98544311523438,-1,2,1677634.111956375,4,2,1676669915.666442,1676669834.051682,104,1.104312,1.157197,1.679942,60.36,0,0,1676669908.974066,1677631.508012,0,-0.2061005,98.58089,1676669915.75257,167772201,182416158,0,0,1,1676669915.725558,1,0.39,1
1676669915.860289,3,1676669914.982703,34.21408530340011,-118.3864399136202,246.0308,0,1.474457,351.1045339269389,180,1.545136572282357,6.239553242642228,-9999,1676669915.853184,24.26520538330078,-0.09796142578125,-35.20706176757812,292.8741149902344,281.2353210449219,12.23850345611572,1677634.297438,0.0075531005859375,-0.21612548828125,-0.888214111328125,1677634.272541,-0.5859715938568115,-0.2970868051052094,-0.1496062725782394,1677634.27878,-113.3391876220703,89.36569213867188,-323.9443664550781,1677634.261337,1.127522033533983,0.02254462366368597,0.147616994425969,-0.6781322360038757,-0.5158205032348633,-0.2277797609567642,-0.01695693656802177,0.04942525923252106,-0.02432578802108765,2,0.05631909448641311,0.04890445867804436,0.533582822050503,0.8424523345604845,0.02229754813015461,-0.1470814645290375,-0.9888730049133301,24.34810638427734,-0.720306396484375,-34.55758666992188,-1,2,1677634.111956375,4,2,1676669915.666442,1676669834.051682,104,1.104312,1.157197,1.679942,60.36,0,0,1676669908.974066,1677631.508012,0,-0.2061005,98.58089,1676669915.75257,167772201,182416158,0,0,1,1676669915.725558,1,0.39,1
1676669915.917788,4,1676669914.982703,34.21408530340011,-118.3864399136202,246.0308,0,1.474457,351.1045339269389,180,1.545136572282357,6.239553242642228,-9999,1676669915.912851,24.83737182617188,-0.02249908447265625,-34.5284423828125,291.2747192382812,279.6359252929688,12.23875331878662,1677634.357191,0.04144287109375,-0.0972442626953125,-0.961822509765625,1677634.332294,-0.09848929196596146,0.3824296593666077,0.5567535161972046,1677634.338832,-112.4483795166016,89.30198669433594,-323.1498413085938,1677634.321091,1.133875800992643,0.02195546360048934,0.1206069029454169,-0.1887187510728836,0.3421370983123779,0.4577153623104095,0.006358280777931213,-0.05004962533712387,0.1246986985206604,2,0.04495028096853428,0.04160773070830553,0.5366011226074243,0.8416100194002341,0.02179422415792942,-0.1203147247433662,-0.9924965500831604,24.29093170166016,0.1158676147460938,-34.45895385742188,-1,2,1677634.111956375,4,2,1676669915.666442,1676669834.051682,104,1.104312,1.157197,1.679942,60.36,0,0,1676669908.974066,1677631.508012,0,-0.2061005,98.58089,1676669915.75257,167772201,182416158,0,0,1,1676669915.725558,1,0.39,1
1676669915.981485,5,1676669914.982703,34.21408530340011,-118.3864399136202,246.0308,0,1.474457,351.1045339269389,180,1.545136572282357,6.239553242642228,-9999,1676669915.972627,24.65468597412109,-0.287567138671875,-34.22964477539062,290.222900390625,278.5841064453125,12.23899173736572,1677634.416944,0.011199951171875,0.0067291259765625,-1.118698120117188,1677634.392047,-0.07286541908979416,-0.06018051505088806,0.2673099935054779,1677634.398886,-112.4247741699219,88.95259094238281,-322.7733154296875,1677634.380844,1.166472395756163,0.03542010322252792,0.1182277135759378,-0.05662061646580696,0.1031678095459938,0.3976348340511322,0.0005706325173377991,0.03981225192546844,-0.02983564138412476,2,0.03956909404598603,0.0472873159537288,0.5505531271857681,0.8325199397974389,0.03516548871994019,-0.1179524809122086,-0.9923964142799377,25.18765258789062,-0.5020599365234375,-34.19851684570312,-1,2,1677634.111956375,4,2,1676669915.666442,1676669834.051682,104,1.104312,1.157197,1.679942,60.36,0,0,1676669908.974066,1677631.508012,0,-0.2061005,98.58089,1676669915.75257,167772201,182416158,0,0,1,1676669915.725558,1,0.39,1
1676669916.037179,6,1676669914.982703,34.21408530340011,-118.3864399136202,246.0308,0,1.474457,351.1045339269389,180,1.545136572282357,6.239553242642228,-9999,1676669916.03256,24.48210906982422,-0.44189453125,-34.54376220703125,291.3025512695312,279.6637573242188,12.23923587799072,1677634.476698,-0.0233612060546875,-0.154266357421875,-0.9615631103515625,1677634.4518,0.2921240031719208,-0.1455880850553513,-0.3691964149475098,1677634.458941,-113.2102813720703,88.63758850097656,-323.2319946289062,1677634.440597,1.1655684072287,0.02154411834959899,0.1222558614392692,0.2689951062202454,-0.2741867005825043,-0.3379189074039459,-0.04953408986330032,0.07414578646421432,-0.06465530395507812,2,0.04508580254209128,0.04259589151751836,0.5498403646489283,0.8329635297732514,0.02138165943324566,-0.1219515427947044,-0.9923056960105896,24.50965881347656,-0.4876022338867188,-34.91632080078125,-1,2,1677634.111956375,4,2,1676669915.666442,1676669834.051682,104,1.104312,1.157197,1.679942,60.36,0,0,1676669908.974066,1677631.508012,0,-0.2061005,98.58089,1676669915.75257,167772201,182416158,0,0,1,1676669915.725558,1,0.39,1
1676669916.102165,7,1676669914.982703,34.21408530340011,-118.3864399136202,246.0308,0,1.474457,351.1045339269389,180,1.545136572282357,6.239553242642228,-9999,1676669916.092373,24.61082458496094,-0.24652099609375,-34.81747436523438,291.5338134765625,279.89501953125,12.23947334289551,1677634.536451,0.0225677490234375,-0.1432647705078125,-1.04669189453125,1677634.511554,0.0709330290555954,-0.03897190093994141,-0.004095142707228661,1677634.518996,-112.7046813964844,88.87361145019531,-323.337890625,1677634.50035,1.148792149953332,0.02235506958298052,0.1353227093310062,0.1072483211755753,0.02865214273333549,-0.0604591965675354,-0.01648780517280102,-0.03403519093990326,0.005289256572723389,2,0.05069717900990356,0.04609406694255784,0.5426852228393899,0.8371367083571423,0.02214885130524635,-0.1349100768566132,-0.9906102418899536,24.87643432617188,-0.47210693359375,-34.36248779296875,-1,2,1677634.111956375,4,2,1676669915.666442,1676669834.051682,104,1.104312,1.157197,1.679942,60.36,0,0,1676669908.974066,1677631.508012,0,-0.2061005,98.58089,1676669915.75257,167772201,182416158,0,0,1,1676669915.725558,1,0.39,1
1676669916.156696,8,1676669915.982706,34.21408530340011,-118.3864399136202,246.0308,0,1.50409,351.1045339269389,180,1.590047081095913,6.15565179621735,-9999,1676669916.151819,24.22339630126953,-0.7377548217773438,-34.53976440429688,291.4430847167969,279.8042907714844,12.23971271514893,1677634.596204,0.024932861328125,-0.148223876953125,-0.9877471923828125,1677634.571307,0.1805588603019714,-0.05380916967988014,0.02254925109446049,1677634.579047,-112.9197540283203,88.49113464355469,-323.0424194335938,1677634.560104,1.149926707405668,0.01543390571366226,0.1381030110572022,0.09716655313968658,-0.1031014621257782,0.03407308459281921,0.006213320419192314,0.003646522760391235,-0.04162144660949707,2,0.0537146361507679,0.04398020133685865,0.542938771249322,0.8368978121612695,0.01528635155409575,-0.1376644372940063,-0.9903609752655029,24.21753692626953,-0.519378662109375,-34.78826904296875,-1,2,1677634.111956375,4,2,1676669915.666442,1676669834.051682,104,1.104312,1.157197,1.679942,60.36,0,0,1676669908.974066,1677631.508012,0,-0.2061005,98.58089,1676669915.75257,167772201,182416158,0,0,1,1676669915.725558,1,0.39,1
1676669916.222096,9,1676669915.982706,34.21408530340011,-118.3864399136202,246.0308,0,1.50409,351.1045339269389,180,1.590047081095913,6.15565179621735,-9999,1676669916.211551,24.10452270507812,-1.695396423339844,-34.48004150390625,291.3970642089844,279.7582702636719,12.23973560333252,1677634.655958,0.020477294921875,-0.1700897216796875,-0.9781951904296875,1677634.63106,0.3123637735843658,0.06259866803884506,0.02944364212453365,1677634.639093,-113.3173980712891,87.45077514648438,-323.0353088378906,1677634.619857,1.150692805706311,0.01526408217082514,0.1529420363768279,0.3172218799591064,0.04188937321305275,-0.009036633186042309,0.01283830031752586,-0.01508815586566925,0.01175636053085327,2,0.05995448844364612,0.04795261303319998,0.5430086487498913,0.8362102438782945,0.01508532091975212,-0.1523464769124985,-0.988211989402771,24.33978271484375,-1.362014770507812,-34.72720336914062,-1,2,1677634.111956375,4,2,1676669915.666442,1676669834.051682,104,1.104312,1.157197,1.679942,60.36,0,0,1676669908.974066,1677631.508012,0,-0.2061005,98.58089,1676669915.75257,167772201,182416158,0,0,1,1676669915.725558,1,0.39,1
1676669916.276349,10,1676669915.982706,34.21408530340011,-118.3864399136202,246.0308,0,1.50409,351.1045339269389,180,1.590047081095913,6.15565179621735,-9999,1676669916.271385,24.33351135253906,-1.977569580078125,-34.33477783203125,291.2311401367188,279.5923461914062,12.23966598510742,1677634.715711,0.0045013427734375,-0.205322265625,-0.9465789794921875,1677634.690814,0.195143923163414,0.03150679171085358,0.03548156097531319,1677634.699141,-113.0004272460938,87.23751831054688,-323.3605346679688,1677634.67961,1.151621687640562,0.01567495614022433,0.1690909444890803,0.2034994214773178,-0.01335969381034374,0.009825663641095161,0.01654694974422455,0.02276329696178436,-0.00414431095123291,2,0.06657364154164472,0.05253019236955879,0.5431085893009387,0.8353691348346328,0.01545077003538609,-0.1682863235473633,-0.9856170415878296,23.94161224365234,-1.660400390625,-34.9049072265625,-1,2,1677634.111956375,4,2,1676669915.666442,1676669834.051682,104,1.104312,1.157197,1.679942,60.36,0,0,1676669908.974066,1677631.508012,0,-0.2061005,98.58089,1676669915.75257,167772201,182416158,0,0,1,1676669915.725558,1,0.39,1
1676669916.335901,11,1676669915.982706,34.21408530340011,-118.3864399136202,246.0308,0,1.50409,351.1045339269389,180,1.590047081095913,6.15565179621735,-9999,1676669916.331346,24.86555480957031,-2.501945495605469,-34.74310302734375,290.9832763671875,279.344482421875,12.23974800109863,1677634.775464,0.0326690673828125,-0.1738739013671875,-1.0845947265625,1677634.750567,0.2166588008403778,0.2582046389579773,0.0402507483959198,1677634.759187,-112.3965301513672,86.45152282714844,-323.4684143066406,1677634.739364,1.154672739811514,0.02214734437000415,0.1781943577492113,0.1701226085424423,0.2904724180698395,0.06482836604118347,-0.008550200611352921,-0.001137658953666687,0.08315187692642212,2,0.06853310257730533,0.05780326222275637,0.5444213355490137,0.8340068526490965,0.02179486677050591,-0.1772528141736984,-0.9839239716529846,24.42957305908203,-1.837844848632812,-34.25936889648438,-1,2,1677634.111956375,4,2,1676669915.666442,1676669834.051682,104,1.104312,1.157197,1.679942,60.36,0,0,1676669908.974066,1677631.508012,0,-0.2061005,98.58089,1676669915.75257,167772201,182416158,0,0,1,1676669915.725558,1,0.39,1
1676669916.395838,12,1676669915.982706,34.21408530340011,-118.3864399136202,246.0308,0,1.50409,351.1045339269389,180,1.590047081095913,6.15565179621735,-9999,1676669916.391023,24.74005889892578,-2.654945373535156,-33.998046875,290.6618347167969,279.0230407714844,12.23997020721436,1677634.835217,0.034637451171875,-0.182586669921875,-0.9437408447265625,1677634.81032,0.001838646363466978,0.0728696808218956,0.09399200975894928,1677634.81923,-112.8095397949219,86.10704040527344,-322.59033203125,1677634.799117,1.157680036176555,0.02808916010223458,0.1853200943654487,-0.02857931144535542,0.01264358125627041,0.08212761580944061,0.006834555417299271,0.00518403947353363,-0.07161808013916016,2,0.06979701240579245,0.06231835986273865,0.5457405701722863,0.8327135930351092,0.02760456874966621,-0.1842611581087112,-0.9824895858764648,24.49292755126953,-2.568778991699219,-34.56497192382812,-1,2,1677634.111956375,4,2,1676669915.666442,1676669834.051682,104,1.104312,1.157197,1.679942,60.36,0,0,1676669908.974066,1677631.508012,0,-0.2061005,98.58089,1676669915.75257,167772201,182416158,0,0,1,1676669915.725558,1,0.39,1
1676669916.455614,13,1676669915.982706,34.21408530340011,-118.3864399136202,246.0308,0,1.50409,351.1045339269389,180,1.590047081095913,6.15565179621735,-9999,1676669916.450908,25.45378875732422,-2.826461791992188,-33.5390625,289.9193725585938,278.2805786132812,12.24020099639893,1677634.894971,0.0467987060546875,-0.1863555908203125,-1.000686645507812,1677634.870074,0.1460352391004562,0.2334058284759521,0.2211664766073227,1677634.879278,-111.8789215087891,86.19973754882812,-322.3778686523438,1677634.85887,1.165609917170912,0.03593414489025536,0.1884246543864795,0.1340427547693253,0.2409117817878723,0.1993492096662521,0.003726225346326828,-0.01079316437244415,0.02292615175247192,2,0.06868685234380598,0.06670020852911292,0.5492500002967369,0.8301551330789063,0.03529053181409836,-0.187311664223671,-0.9816663861274719,24.87448883056641,-2.809402465820312,-34.06695556640625,-1,2,1677634.111956375,4,2,1676669915.666442,1676669834.051682,104,1.104312,1.157197,1.679942,60.36,0,0,1676669908.974066,1677631.508012,0,-0.2061005,98.58089,1676669915.75257,167772201,182416158,0,0,1,1676669915.725558,1,0.39,1
1676669916.515412,14,1676669915.982706,34.21408530340011,-118.3864399136202,246.0308,0,1.50409,351.1045339269389,180,1.590047081095913,6.15565179621735,-9999,1676669916.510623,25.77255249023438,-3.826278686523438,-33.5177001953125,289.4991455078125,277.8603515625,12.2404317855835,1677634.954724,0.09283447265625,-0.195831298828125,-0.9914093017578125,1677634.929827,0.4125364422798157,0.1648491322994232,0.09398055821657181,1677634.939327,-111.3567810058594,85.29411315917969,-322.2538757324219,1677634.918624,1.177139642502771,0.04748519198115764,0.2008505187549336,0.3608784973621368,0.1909321844577789,0.1252482533454895,0.02961300686001778,0.01059906184673309,-0.01923888921737671,2,0.07024984427177867,0.07529017806024442,0.5541988698256797,0.8259901631545624,0.04651312530040741,-0.1995028257369995,-0.978792667388916,25.56510162353516,-3.408683776855469,-33.85653686523438,-1,2,1677634.111956375,4,2,1676669915.666442,1676669834.051682,104,1.104312,1.157197,1.679942,60.36,0,0,1676669908.974066,1677631.508012,0,-0.2061005,98.58089,1676669915.75257,167772201,182416158,0,0,1,1676669915.725558,1,0.39,1
1676669916.575142,15,1676669915.982706,34.21408530340011,-118.3864399136202,246.0308,0,1.50409,351.1045339269389,180,1.590047081095913,6.15565179621735,-9999,1676669916.57011,25.60265350341797,-4.359855651855469,-33.188232421875,290.0958862304688,278.4570922851562,12.24067974090576,1677635.014477,0.067779541015625,-0.2124481201171875,-1.012893676757812,1677634.98958,0.3419440090656281,-0.4073898792266846,-0.2032463252544403,1677634.999378,-111.7568359375,85.00283813476562,-321.7100219726562,1677634.978377,1.177493899927484,0.05242869799401097,0.2253186786926782,0.3915617763996124,-0.1837694644927979,-0.1090633273124695,0.04723236709833145,0.02784512937068939,-0.02083331346511841,2,0.07899811189678281,0.08406834982437168,0.5540600171613546,0.8244448575341214,0.05108004808425903,-0.2234169989824295,-0.9733836054801941,26.00827789306641,-4.064071655273438,-33.18923950195312,-1,2,1677634.111956375,4,2,1676669915.666442,1676669834.051682,104,1.104312,1.157197,1.679942,60.36,0,0,1676669908.974066,1677631.508012,0,-0.2061005,98.58089,1676669915.75257,167772201,182416158,0,0,1,1676669915.725558,1,0.39,1
1676669916.634667,16,1676669915.982706,34.21408530340011,-118.3864399136202,246.0308,0,1.50409,351.1045339269389,180,1.590047081095913,6.15565179621735,-9999,1676669916.629863,24.72634887695312,-4.644943237304688,-33.67340087890625,289.5913391113281,277.9525451660156,12.24093055725098,1677635.074231,0.039031982421875,-0.176513671875,-1.012344360351562,1677635.049333,-0.08151882886886597,-0.06185750663280487,0.1959189027547836,1677635.059429,-112.4648590087891,84.47099304199219,-322.7428283691406,1677635.03813,1.167874358244948,0.0238879727395439,0.2368188700869855,-0.02204710058867931,-0.3411225974559784,0.0423930399119854,0.06195556372404099,0.1498794555664062,-0.01601159572601318,2,0.09201248736253692,0.07501842043355034,0.5485906870476648,0.8276195295759642,0.02321903221309185,-0.2346114814281464,-0.9718118906021118,24.9295654296875,-4.4161376953125,-33.3115234375,-1,2,1677634.111956375,4,2,1676669915.666442,1676669834.051682,104,1.104312,0,0,60.36,0,0,1676669916.622493,1677631.508012,0,-0.2061005,98.58089,1676669915.75257,167772201,182416158,0,0,1,1676669915.725558,1,0.39,1
1676669916.694857,17,1676669915.982706,34.21408530340011,-118.3864399136202,246.0308,0,1.50409,351.1045339269389,180,1.590047081095913,6.15565179621735,-9999,1676669916.689906,24.31539154052734,-5.484931945800781,-34.09616088867188,286.1561279296875,274.517333984375,12.24121761322021,1677635.133984,0.05438232421875,-0.291839599609375,-0.8970794677734375,1677635.109087,-0.2665970623493195,-0.2861446738243103,1.102392673492432,1677635.119484,-112.5117492675781,83.58503723144531,-322.9914855957031,1677635.097883,1.202027036174515,0.02727004912908771,0.2246583724701438,-0.3460693955421448,0.05909843742847443,0.9971675276756287,0.04916319996118546,0.0003307461738586426,-0.07483911514282227,2,0.08478016059124818,0.074554812383645,0.5631231508727886,0.8186246046455289,0.02658146619796753,-0.2227733284235001,-0.9745078086853027,24.69952392578125,-4.936927795410156,-33.8057861328125,-1,2,1677634.111956375,4,2,1676669915.666442,1676669834.051682,104,1.104312,0,0,60.36,0,0,1676669916.622493,1677632.508586,0,-0.2061005,98.58089,1676669915.75257,167772201,182416158,0,0,1,1676669915.725558,1,0.39,1
1676669916.754503,18,1676669915.982706,34.21408530340011,-118.3864399136202,246.0308,0,1.50409,351.1045339269389,180,1.590047081095913,6.15565179621735,-9999,1676669916.749484,22.54067993164062,-8.110359191894531,-34.37136840820312,281.4040832519531,269.7652893066406,12.2415885925293,1677635.193737,0.0132598876953125,-0.12579345703125,-0.925933837890625,1677635.16884,0.6633111238479614,-0.4107840657234192,1.456239700317383,1677635.179536,-114.7423095703125,81.0999755859375,-322.429931640625,1677635.157637,1.275383232558975,-0.02226048599945389,0.22574318552699,0.4945699274539948,-0.5761556029319763,1.354597687721252,0.08288168907165527,0.04690511524677277,0.07829892635345459,2,0.09707514389882084,0.05816474516155735,0.5905101389133385,0.7990562959912952,-0.02169390209019184,-0.2238307595252991,-0.9743865728378296,23.42193603515625,-6.254692077636719,-34.53897094726562,-1,2,1677634.111956375,4,2,1676669915.666442,1676669834.051682,104,1.104312,0,0,60.36,0,0,1676669916.622493,1677632.508586,0,-0.2061005,98.58089,1676669915.75257,167772201,182416158,0,0,1,1676669915.725558,1,0.39,1
1676669916.814341,19,1676669915.982706,34.21408530340011,-118.3864399136202,246.0308,0,1.50409,351.1045339269389,180,1.590047081095913,6.15565179621735,-9999,1676669916.809256,23.28537750244141,-13.88294982910156,-32.53460693359375,274.0219116210938,262.3831176757812,12.24205303192139,1677635.25349125,0.2448577880859375,-0.071929931640625,-0.832489013671875,1677635.22859325,1.360751152038574,1.343275785446167,2.124471426010132,1677635.23958725,-114.4764862060547,76.00244140625,-321.6004638671875,1677635.21739025,1.384927362805267,-0.04865248929639922,0.2756903865991117,1.266002416610718,0.9141287207603455,2.184874057769775,0.07176020741462708,0.2233985066413879,0.03852200508117676,2,0.121110995926985,0.06915697510047383,0.6296198043192589,0.7642828546289953,-0.04679678380489349,-0.2722113132476807,-0.961098849773407,22.40077209472656,-10.05683898925781,-34.3160400390625,-1,2,1677634.111956375,4,2,1676669915.666442,1676669834.051682,104,1.104312,0,0,60.36,0,0,1676669916.622493,1677632.508586,0,-0.2061005,98.58089,1676669915.75257,167772201,182416158,0,0,1,1676669915.725558,1,0.39,1
1676669916.873869,20,1676669915.982706,34.21408530340011,-118.3864399136202,246.0308,0,1.50409,351.1045339269389,180,1.590047081095913,6.15565179621735,-9999,1676669916.869042,18.31822204589844,-18.96272277832031,-33.17678833007812,267.6393432617188,256.0005493164062,12.24267959594727,1677635.31324425,-0.3350982666015625,-0.57122802734375,-0.6134490966796875,1677635.28834725,1.217649459838867,-3.526705980300903,2.557861089706421,1677635.29964025,-118.4767761230469,70.50407409667969,-321.6533203125,1677635.27714325,1.506015511339461,-0.03948962206756093,0.3538134172870604,1.187450051307678,-1.915639877319336,2.217178106307983,-0.1518545597791672,-0.1884803175926208,-0.408650815486908,2,0.1416707710307883,0.1061410243262518,0.6704972402268478,0.7204838246661334,-0.03703393787145615,-0.3464775383472443,-0.937326967716217,23.48937225341797,-15.65373992919922,-31.84963989257812,-1,2,1677634.111956375,4,2,1676669915.666442,1676669834.051682,104,1.104312,0,0,60.36,0,0,1676669916.622493,1677632.508586,0,-0.2061005,98.58089,1676669915.75257,167772201,182416158,0,0,1,1676669915.725558,1,0.39,1
1676669916.933614,21,1676669915.982706,34.21408530340011,-118.3864399136202,246.0308,0,1.50409,351.1045339269389,180,1.590047081095913,6.15565179621735,-9999,1676669916.928854,19.57500457763672,-19.85242462158203,-32.40118408203125,266.4407958984375,254.802001953125,12.24299144744873,1677635.37299725,-0.062652587890625,-0.442169189453125,-0.9561309814453125,1677635.34810025,-0.2969981133937836,1.198934078216553,-0.2946366965770721,1677635.35969325,-118.3789978027344,69.26095581054688,-320.9876098632812,1677635.33689725,1.638935585095967,-0.1788517922372797,0.402278678890983,0.1975587606430054,0.9407508373260498,0.5564374923706055,0.3117543756961823,-0.1437774002552032,0.1900544166564941,2,0.199779005631925,0.08568395583773537,0.7010092600828647,0.6792146099376787,-0.1636982709169388,-0.3915161192417145,-0.9054931998252869,18.04411315917969,-20.35727691650391,-33.02774047851562,-1,2,1677634.111956375,4,2,1676669915.666442,1676669834.051682,104,1.104312,0,0,60.36,0,0,1676669916.622493,1677632.508586,0,-0.2061005,98.58089,1676669915.75257,167772201,182416158,0,0,1,1676669915.725558,1,0.39,1
1676669916.993318,22,1676669915.982706,34.21408530340011,-118.3864399136202,246.0308,0,1.50409,351.1045339269389,180,1.590047081095913,6.15565179621735,-9999,1676669916.988376,22.57968139648438,-15.32073211669922,-32.48300170898438,271.1729125976562,259.5341186523438,12.24336910247803,1677635.43275125,0.0152587890625,-0.4880218505859375,-0.692901611328125,1677635.40785325,-1.400120973587036,1.158631086349487,-1.693395256996155,1677635.41974625,-114.7108154296875,73.22409057617188,-321.2233581542969,1677635.39665025,1.564080181769866,-0.08371963861965616,0.3556480815157983,-1.555301070213318,0.909117579460144,-1.79745614528656,0.2785995304584503,0.02007296681404114,-0.3881736397743225,2,0.1544144714126051,0.09532729964690198,0.6877559649370405,0.7028943714359557,-0.07838889956474304,-0.3481979668140411,-0.934137761592865,20.46762084960938,-18.71523284912109,-32.3656005859375,-1,2,1677634.111956375,4,2,1676669915.666442,1676669834.051682,104,1.104312,0,0,60.36,0,0,1676669916.622493,1677632.508586,0,-0.2061005,98.58089,1676669915.75257,167772201,182416158,0,0,1,1676669915.725558,1,0.39,1
1676669917.053058,23,1676669915.982706,34.21408530340011,-118.3864399136202,246.0308,0,1.50409,351.1045339269389,180,1.590047081095913,6.15565179621735,-9999,1676669917.048564,24.19061279296875,-17.04143524169922,-30.49118041992188,268.1478271484375,256.509033203125,12.24349117279053,1677635.49250425,0.320098876953125,-0.2294921875,-0.602783203125,1677635.46760725,0.7809600234031677,1.321567058563232,1.066614627838135,1677635.47980025,-113.5235748291016,72.91476440429688,-319.7221374511719,1677635.45640325,1.513706107282491,-0.0220526902502717,0.3124925918871728,0.3556059002876282,0.85921311378479,0.749093234539032,0.04225378111004829,-0.1946437060832977,0.4835959076881409,2,0.1206013441299549,0.09892365813442498,0.6769840409054947,0.7192788390993459,-0.02098298259079456,-0.3074314594268799,-0.9513388276100159,23.26725769042969,-14.99134826660156,-32.246826171875,-1,2,1677634.111956375,4,2,1676669915.666442,1676669834.051682,104,1.104312,0,0,60.36,0,0,1676669916.622493,1677632.508586,0,-0.2061005,98.58089,1676669915.75257,167772201,182416158,0,0,1,1676669915.725558,1,0.39,1
1676669917.11273,24,1676669915.982706,34.21408530340011,-118.3864399136202,246.0308,0,1.50409,351.1045339269389,180,1.590047081095913,6.15565179621735,-9999,1676669917.107836,27.5897216796875,-19.6405029296875,-25.59307861328125,264.6317749023438,252.9929809570312,12.24394989013672,1677635.55225725,0.230194091796875,-0.2001800537109375,-0.588714599609375,1677635.52736025,1.254423975944519,2.387841939926147,0.4757153987884521,1677635.53985325,-109.9207305908203,69.72651672363281,-314.7839660644531,1677635.51615725,1.580572316555253,0.05908913443594175,0.3788121828503522,1.353347420692444,2.25273609161377,0.7730693221092224,0.3251063823699951,0.1586660146713257,0.2737507224082947,2,0.1118062373557132,0.1541358153792814,0.7014561644296384,0.6868046548306245,0.05486804246902466,-0.3698171377182007,-0.9274830222129822,24.95078277587891,-18.157470703125,-29.35919189453125,-1,2,1677634.111956375,4,2,1676669915.666442,1676669834.051682,104,1.104312,0,0,60.36,0,0,1676669916.622493,1677632.508586,0,-0.2061005,98.58089,1676669915.75257,167772201,182416158,0,0,1,1676669915.725558,1,0.39,1
1676669917.172529,25,1676669916.982709,34.21408492414113,-118.3864492088278,246.1694,0,1.72615,351.1045291614073,180,1.476317488606296,6.336689423066665,-9999,1676669917.1678,32.99874114990234,-19.93836975097656,-17.79312133789062,264.6815795898438,253.0428009033203,12.24477100372314,1677635.61201025,0.51324462890625,-0.02587890625,-0.15350341796875,1677635.58711325,1.36984646320343,3.713759183883667,-0.820250928401947,1677635.59990825,-104.6167449951172,68.82167053222656,-307.7695007324219,1677635.57591025,1.579028148585811,0.2154057456089308,0.4358972361894486,0.8551293015480042,3.143389701843262,-0.4850435256958008,0.1202994585037231,0.3402384519577026,0.5457596182823181,2,0.07686593414489568,0.2265402024960239,0.7055654645369698,0.6670446601211842,0.1937569677829742,-0.4222238957881927,-0.8855423331260681,28.82498931884766,-20.08425140380859,-23.67849731445312,-1,2,1677634.111956375,4,2,1676669915.666442,1676669834.051682,104,1.104312,0,0,60.36,0,0,1676669916.622493,1677632.508586,0,-0.2061005,98.58089,1676669915.75257,167772201,182416158,0,0,1,1676669915.725558,1,0.39,1
1676669917.23251,26,1676669916.982709,34.21408492414113,-118.3864492088278,246.1694,0,1.72615,351.1045291614073,180,1.476317488606296,6.336689423066665,-9999,1676669917.227491,39.69564056396484,-15.91960144042969,-2.22857666015625,270.4788818359375,258.840087890625,12.2467679977417,1677635.67176425,0.9910888671875,0.0009002685546875,-0.5105133056640625,1677635.64686725,2.596266508102417,6.086310863494873,-2.878622770309448,1677635.65996125,-98.07955932617188,72.42677307128906,-293.13671875,1677635.63566325,1.445119424996295,0.5516328739216469,0.5108714128568275,2.571195602416992,5.696615219116211,-2.305526733398438,0.2162830829620361,0.5379641056060791,0.4125748872756958,2,0.008113866615030274,0.35842760448461,0.6672804443485576,0.652840399541762,0.4571636021137238,-0.4889375865459442,-0.742927610874176,35.76103973388672,-19.28131103515625,-12.87161254882812,-1,2,1677634.111956375,4,2,1676669915.666442,1676669834.051682,104,1.104312,0,0,60.36,0,0,1676669916.622493,1677632.508586,0,-0.2061005,98.58089,1676669915.75257,167772201,182416158,0,0,1,1676669915.725558,1,0.39,1
1676669917.291976,27,1676669916.982709,34.21408492414113,-118.3864492088278,246.1694,0,1.72615,351.1045291614073,180,1.476317488606296,6.336689423066665,-9999,1676669917.287482,40.55584716796875,-6.549247741699219,11.657470703125,285.4605407714844,273.8217468261719,12.24917793273926,1677635.73151725,1.55419921875,0.03204345703125,-0.8289794921875,1677635.70662025,2.663278579711914,5.490711688995361,-4.721024990081787,1677635.72001225,-96.96986389160156,83.50468444824219,-276.1360473632812,1677635.69541725,1.155403787325501,1.072938018725857,0.4610144738844403,2.751764059066772,6.252350330352783,-4.352878570556641,0.331281840801239,0.4518149793148041,-0.2711930572986603,2,-0.1072241857859995,0.5240782199712704,0.5547912803681072,0.6372216870608585,0.7868821024894714,-0.4448569118976593,-0.4276899993419647,40.69486236572266,-12.69171905517578,4.22076416015625,-1,2,1677634.111956375,4,2,1676669915.666442,1676669834.051682,104,1.104312,0,0,60.36,0,0,1676669916.622493,1677632.508586,0,-0.2061005,98.58089,1676669915.75257,167772201,182416158,0,0,1,1676669915.725558,1,0.39,1
1676669917.351927,28,1676669916.982709,34.21408492414113,-118.3864492088278,246.1694,0,1.72615,351.1045291614073,180,1.476317488606296,6.336689423066665,-9999,1676669917.346919,35.79238891601562,9.235862731933594,21.19680786132812,310.5032958984375,298.864501953125,12.25125503540039,1677635.79127025,1.856292724609375,-0.1710205078125,-0.6537322998046875,1677635.76637325,1.908745288848877,3.57861065864563,-6.263514041900635,1677635.78006425,-102.0448455810547,99.41714477539062,-266.8359680175781,1677635.75517025,0.9166641598052664,1.434838779987334,0.1946489481265678,1.859869241714478,3.758345127105713,-6.284811019897461,0.6046745181083679,0.1553057134151459,-0.6558235883712769,2,-0.2238488187554996,0.6191946042279206,0.3891036193641171,0.6442732206220653,0.9720617532730103,-0.1934221237897873,-0.1329794973134995,38.93731689453125,1.361892700195312,16.51638793945312,-1,2,1677634.111956375,4,2,1676669915.666442,1676669834.051682,104,1.104312,0,0,60.36,0,0,1676669916.622493,1677632.508586,0,-0.2061005,98.58089,1676669915.75257,167772201,182416158,0,0,1,1676669915.725558,1,0.39,1
1676669917.411669,29,1676669916.982709,34.21408492414113,-118.3864492088278,246.1694,0,1.72615,351.1045291614073,180,1.476317488606296,6.336689423066665,-9999,1676669917.40694,28.51100158691406,23.10518646240234,22.5413818359375,336.5962829589844,324.9574890136719,12.25238990783691,1677635.85102425,1.7283935546875,-0.1440277099609375,-0.2471923828125,1677635.82612725,2.805663108825684,0.3446814715862274,-4.752425670623779,1677635.84011525,-109.30712890625,113.1069030761719,-266.182861328125,1677635.81492325,0.7713650950729305,1.595595358774331,-0.1504111563321082,2.650284290313721,0.899299144744873,-5.140096664428711,0.9816566705703735,-0.2673983573913574,-0.5124011039733887,2,-0.3171357610297175,0.6416254134665723,0.2121142668528045,0.6653940039645236,0.9884054660797119,0.1498446613550186,0.02451652474701405,32.05058288574219,16.59349822998047,23.08975219726562,-1,2,1677634.111956375,4,2,1676669915.666442,1676669834.051682,104,1.104312,0,0,60.36,0,0,1676669916.622493,1677632.508586,0,-0.2061005,98.58089,1676669915.75257,167772201,182416158,0,0,1,1676669915.725558,1,0.39,1
1676669917.471191,30,1676669916.982709,34.21408492414113,-118.3864492088278,246.1694,0,1.72615,351.1045291614073,180,1.476317488606296,6.336689423066665,-9999,1676669917.466439,24.88558959960938,30.47157287597656,17.772705078125,349.8586120605469,338.2198181152344,12.25302314758301,1677635.91077725,1.542678833007812,-0.2425384521484375,-0.112701416015625,1677635.88588025,1.70942234992981,-1.378129124641418,-2.394954204559326,1677635.90016325,-112.646484375,119.9416809082031,-271.1873474121094,1677635.87467625,0.6076363056132932,1.527098653172975,-0.3950569720874594,2.12779712677002,-1.169871687889099,-2.915731430053711,0.8410441875457764,-0.5505712032318115,-0.2036080360412598,2,-0.338120398456166,0.6045784423347899,0.08242331703512384,0.7164955097168363,0.9220935106277466,0.3848607838153839,-0.04031900689005852,26.26012420654297,27.39350891113281,20.053955078125,-1,2,1677634.111956375,4,2,1676669915.666442,1676669834.051682,104,1.104312,0,0,60.36,0,0,1676669916.622493,1677632.508586,0,-0.2061005,98.58089,1676669915.75257,167772201,182416158,0,0,1,1676669915.725558,1,0.39,1
1676669917.531152,31,1676669916.982709,34.21408492414113,-118.3864492088278,246.1694,0,1.72615,351.1045291614073,180,1.476317488606296,6.336689423066665,-9999,1676669917.526307,24.95381927490234,32.00708770751953,13.957275390625,350.23681640625,338.5980224609375,12.2533597946167,1677635.97053025,1.21478271484375,-0.1190338134765625,0.008148193359375,1677635.94563325,0.420923262834549,-1.60093367099762,-0.1997019201517105,1677635.96021525,-112.2626647949219,121.0986022949219,-274.9398193359375,1677635.93443025,0.5198641705119287,1.40051440057144,-0.4828298581265507,0.5701022148132324,-1.543383955955505,-0.4850793182849884,0.491733729839325,-0.6457296013832092,0.06762979924678802,2,-0.3374962078534488,0.5577204988120028,0.04194486159804517,0.7571557833397002,0.8728750944137573,0.4642874002456665,-0.1500883102416992,24.26415252685547,31.61875915527344,15.79043579101562,-1,2,1677634.111956375,4,2,1676669915.666442,1676669834.051682,104,1.104312,0,0,60.36,0,0,1676669916.622493,1677632.508586,0,-0.2061005,98.58089,1676669915.75257,167772201,182416158,0,0,1,1676669915.725558,1,0.39,1
1676669917.591916,32,1676669916.982709,34.21408492414113,-118.3864492088278,246.1694,0,1.72615,351.1045291614073,180,1.476317488606296,6.336689423066665,-9999,1676669917.585913,27.68866729736328,30.77618408203125,12.921630859375,344.5870056152344,332.9482116699219,12.2536735534668,1677636.03028425,1.00274658203125,0.0113677978515625,0.1760711669921875,1677636.00538625,-0.6665157079696655,-1.129528403282166,0.9099875092506409,1677636.02027025,-109.4514770507812,119.6945037841797,-275.7420349121094,1677635.99418325,0.5235761387214247,1.303280465513809,-0.4724338113787993,-0.5926378965377808,-1.37319552898407,0.7704943418502808,0.2366383075714111,-0.5670543313026428,0.3325957059860229,2,-0.3323382748368047,0.5214022362723995,0.06296241485750531,0.783407115884778,0.8587900996208191,0.4550548493862152,-0.2353819608688354,26.10958862304688,32.12612915039062,13.08135986328125,-1,2,1677634.111956375,4,2,1676669915.666442,1676669834.051682,104,1.104312,0,0,60.36,0,0,1676669916.622493,1677632.508586,0,-0.2061005,98.58089,1676669915.75257,167772201,182416158,0,0,1,1676669915.725558,1,0.39,1
1676669917.6505,33,1676669916.982709,34.21408492414113,-118.3864492088278,246.1694,0,1.72615,351.1045291614073,180,1.476317488606296,6.336689423066665,-9999,1676669917.646212,29.64724731445312,29.03617858886719,13.013427734375,339.6360473632812,327.9972534179688,12.25395011901855,1677636.09003725,0.82342529296875,0.0322723388671875,0.040130615234375,1677636.06514025,-0.3226648569107056,0.4369922280311584,1.208531260490417,1677636.08032725,-107.6309814453125,118.0719909667969,-275.6401062011719,1677636.05393625,0.5829417159591039,1.284663963251563,-0.4252116386466878,-0.4281027317047119,0.1301037669181824,1.126383304595947,0.01173597574234009,-0.4075239300727844,0.4473266005516052,2,-0.3300999149363448,0.5123268247323142,0.1038342342643956,0.785985829003981,0.8739145994186401,0.4125135838985443,-0.2571105360984802,28.87486267089844,30.09146118164062,12.55105590820312,-1,2,1677634.111956375,4,2,1676669915.666442,1676669834.051682,104,1.104312,0,0,60.36,0,0,1676669916.622493,1677633.509164,0,-0.1981812,98.58078,1676669915.75257,167772201,182416158,0,0,1,1676669915.725558,1,0.39,1
1676669917.710594,34,1676669916.982709,34.21408492414113,-118.3864492088278,246.1694,0,1.72615,351.1045291614073,180,1.476317488606296,6.336689423066665,-9999,1676669917.705609,30.82135772705078,26.34170532226562,15.32839965820312,334.8303833007812,323.1915893554688,12.25421714782715,1677636.14979025,0.747528076171875,0.2504425048828125,-0.087860107421875,1677636.12489325,-0.7209256887435913,0.8190631866455078,1.007502555847168,1677636.14037825,-106.4555969238281,115.3773651123047,-273.0058898925781,1677636.11369025,0.6301252135602519,1.333622069909934,-0.3612234516565695,-0.6432691812515259,0.7160053849220276,1.104112029075623,-0.1594758629798889,-0.3218027353286743,0.2347018420696259,2,-0.3227416401105292,0.5347343527174967,0.1339087847127687,0.7693928932191986,0.9092774987220764,0.3534190058708191,-0.2197940051555634,30.36529541015625,27.62959289550781,14.08880615234375,-1,2,1677634.111956375,4,2,1676669915.666442,1676669834.051682,104,1.104312,0,0,60.36,0,0,1676669916.622493,1677633.509164,0,-0.1981812,98.58078,1676669915.75257,167772201,182416158,0,0,1,1676669915.725558,1,0.39,1
1676669917.770274,35,1676669916.982709,34.21408492414113,-118.3864492088278,246.1694,0,1.72615,351.1045291614073,180,1.476317488606296,6.336689423066665,-9999,1676669917.765211,30.90518188476562,23.85287475585938,18.8304443359375,330.8270874023438,319.1882934570312,12.25442886352539,1677636.209542542,0.9160003662109375,0.4321746826171875,-0.1451873779296875,1677636.18464625,-0.5865247249603271,1.730671167373657,0.9172983765602112,1677636.20043425,-106.4759063720703,112.90625,-269.4677429199219,1677636.17344325,0.6967680907098582,1.417680721535074,-0.3136035937995705,-0.9365186095237732,1.737973809242249,0.8993052244186401,-0.2006279230117798,0.002333104610443115,0.1163166016340256,2,-0.3309182933204661,0.5638735387091718,0.1604214568790678,0.7394624453619139,0.9400994181632996,0.3084884583950043,-0.1450794339179993,30.91392517089844,25.00414276123047,16.7139892578125,-1,2,1677634.111956375,4,2,1676669915.666442,1676669834.051682,104,1.104312,0,0,60.36,0,0,1676669916.622493,1677633.509164,0,-0.1981812,98.58078,1676669915.75257,167772201,182416158,0,0,1,1676669915.725558,1,0.39,1
1676669917.829753,36,1676669916.982709,34.21408492414113,-118.3864492088278,246.1694,0,1.72615,351.1045291614073,180,1.476317488606296,6.336689423066665,-9999,1676669917.824959,31.01118469238281,23.12709045410156,19.06912231445312,329.4732055664062,317.8344116210938,12.2545051574707,1677636.269295542,0.8822174072265625,0.522369384765625,-0.0297088623046875,1677636.244398542,-0.3247999250888824,-0.2577351331710815,-0.1830553114414215,1677636.260487542,-106.3948211669922,112.3167724609375,-269.5851440429688,1677636.233194542,0.7321800022612657,1.474152096448231,-0.2696227595381956,-0.4437134861946106,-0.1798544675111771,0.1759776920080185,0.06529980897903442,0.3176470994949341,0.1214348003268242,2,-0.3313386565752994,0.5862685872583625,0.1782975170690849,0.7174356233311994,0.9593736529350281,0.2663678526878357,-0.09300767630338669,30.96243286132812,23.22936248779297,18.57748413085938,-1,2,1677634.111956375,4,2,1676669915.666442,1676669834.051682,104,1.104312,0,0,60.36,0,0,1676669916.622493,1677633.509164,0,-0.1981812,98.58078,1676669915.75257,167772201,182416158,0,0,1,1676669915.725558,1,0.39,1
1676669917.889492,37,1676669916.982709,34.21408492414113,-118.3864492088278,246.1694,0,1.72615,351.1045291614073,180,1.476317488606296,6.336689423066665,-9999,1676669917.8849,30.90714263916016,23.86013031005859,18.13058471679688,331.0297241210938,319.3909301757812,12.25460910797119,1677636.329048542,1.040878295898438,0.2499237060546875,-0.1239013671875,1677636.304151542,0.3104486763477325,0.1422703266143799,-0.1705762594938278,1677636.320541542,-106.3282775878906,113.12451171875,-270.5250244140625,1677636.292948542,0.7300713729979371,1.46222047708327,-0.2853581962809079,0.3667310774326324,0.03080510161817074,-0.1884218603372574,-0.1064831018447876,0.06754365563392639,0.04157207906246185,2,-0.3348144390966916,0.5795765782500877,0.1743617475215122,0.7222107143932724,0.9539104700088501,0.2815011739730835,-0.1039805635809898,30.75495147705078,23.51117706298828,18.43072509765625,-1,2,1677634.111956375,4,2,1676669915.666442,1676669834.051682,104,1.104312,0,0,60.36,0,0,1676669916.622493,1677633.509164,0,-0.1981812,98.58078,1676669915.75257,167772201,182416158,0,0,1,1676669915.725558,1,0.39,1
1676669917.949785,38,1676669916.982709,34.21408492414113,-118.3864492088278,246.1694,0,1.72615,351.1045291614073,180,1.476317488606296,6.336689423066665,-9999,1676669917.944404,29.77886962890625,24.75765991210938,18.36026000976562,332.9906311035156,321.3518371582031,12.25476169586182,1677636.388802542,1.165267944335938,0.136322021484375,0.0258331298828125,1677636.363904542,0.04157460853457451,0.2487903833389282,-0.6632989048957825,1677636.380594542,-107.6370849609375,114.0645446777344,-270.2119750976562,1677636.352701542,0.725409624947401,1.466380699832698,-0.3048414998870606,-0.1883554905653,0.2253593653440475,-0.6998715400695801,0.2276923060417175,0.1354049146175385,0.06180769205093384,2,-0.3401750105200099,0.578420833740717,0.165577173895966,0.7226994125512205,0.9486992359161377,0.3001419901847839,-0.09942059963941574,30.40946197509766,24.16128540039062,17.88876342773438,-1,2,1677634.111956375,4,2,1676669915.666442,1676669834.051682,104,1.104312,0,0,60.36,0,0,1676669916.622493,1677633.509164,0,-0.1981812,98.58078,1676669915.75257,167772201,182416158,0,0,1,1676669915.725558,1,0.39,1
1676669918.008967,39,1676669916.982709,34.21408492414113,-118.3864492088278,246.1694,0,1.72615,351.1045291614073,180,1.476317488606296,6.336689423066665,-9999,1676669918.00444,29.42372131347656,25.10956573486328,18.4447021484375,334.2723388671875,322.633544921875,12.25497245788574,1677636.448555542,1.074310302734375,0.3538055419921875,-0.044921875,1677636.423658542,0.2308380007743835,0.580543041229248,0.07949882000684738,1677636.440642542,-107.9679718017578,114.4004669189453,-270.0219116210938,1677636.412454542,0.710247744474016,1.478097323755023,-0.3207563458543222,0.2341215312480927,0.3491610288619995,0.1269923895597458,0.237831711769104,-0.09821286797523499,0.0616304874420166,2,-0.3418692107543897,0.5824112480258877,0.1528411570976579,0.7214999529599929,0.9449227452278137,0.3152844309806824,-0.08784516155719757,29.31316375732422,25.05073547363281,18.15460205078125,-1,2,1677634.111956375,4,2,1676669915.666442,1676669834.051682,104,1.104312,0,0,60.36,0,0,1676669916.622493,1677633.509164,0,-0.1981812,98.58078,1676669915.75257,167772201,182416158,0,0,1,1676669915.725558,1,0.39,1
1676669918.070075,40,1676669916.982709,34.21408492414113,-118.3864492088278,246.1694,0,1.72615,351.1045291614073,180,1.476317488606296,6.336689423066665,-9999,1676669918.063955,28.70977020263672,24.96082305908203,19.67385864257812,336.1239013671875,324.485107421875,12.25524044036865,1677636.508308542,0.942596435546875,0.10894775390625,0.0298919677734375,1677636.483411542,0.5129762291908264,1.139031291007996,0.2944753170013428,1677636.500695542,-108.6723327636719,114.1200561523438,-268.7776184082031,1677636.472208542,0.6835908958532352,1.527002842250919,-0.3095044044593101,0.6285252571105957,1.189891338348389,0.402017205953598,0.1072207093238831,-0.08200666308403015,-0.05252373218536377,2,-0.3339009949398551,0.6063501322110983,0.1388337388200735,0.7082194208373319,0.9515713453292847,0.3045866191387177,-0.04169928655028343,28.94849395751953,24.73902130126953,18.515625,-1,2,1677634.111956375,4,2,1676669915.666442,1676669834.051682,104,1.104312,0,0,60.36,0,0,1676669916.622493,1677633.509164,0,-0.1981812,98.58078,1676669915.75257,167772201,182416158,0,0,1,1676669915.725558,1,0.39,1
1676669918.128738,41,1676669916.982709,34.21408492414113,-118.3864492088278,246.1694,0,1.72615,351.1045291614073,180,1.476317488606296,6.336689423066665,-9999,1676669918.123793,27.3680419921875,24.96852111816406,21.25180053710938,338.8116455078125,327.1728515625,12.25556659698486,1677636.568061542,1.036178588867188,0.3098297119140625,0.2621307373046875,1677636.543164542,0.8003126382827759,1.682441115379333,0.3564169704914093,1677636.560750542,-110.1401214599609,114.2533111572266,-267.28076171875,1677636.531961542,0.6580847728705919,1.59808261307151,-0.2886704219713229,0.5887585282325745,1.826867461204529,0.4728422462940216,0.1339577436447144,-0.1459144651889801,0.2575526237487793,2,-0.3241082035276457,0.6387729519254408,0.1254562745135208,0.6864282630020667,0.9582664370536804,0.2846779227256775,0.02615402266383171,27.87103271484375,24.66122436523438,20.44100952148438,-1,2,1677634.111956375,4,2,1676669915.666442,1676669834.051682,104,1.104312,0,0,60.36,0,0,1676669916.622493,1677633.509164,0,-0.1981812,98.58078,1676669915.75257,167772201,182416158,0,0,1,1676669915.725558,1,0.39,1
1676669918.191876,42,1676669917.982713,34.21408273268089,-118.3864508717435,246.0489,0,1.452536,351.1045283286352,180,1.559984774854347,6.623039399439913,-9999,1676669918.183473,23.96578979492188,26.79187774658203,23.160400390625,347.1315612792969,335.4927673339844,12.25606441497803,1677636.627815542,0.8479766845703125,0.228485107421875,0.1447296142578125,1677636.602918542,1.502180457115173,2.715683221817017,-0.07541566342115402,1677636.620803542,-113.6585845947266,116.1283416748047,-265.3897094726562,1677636.591714542,0.597054788023337,1.693870105545516,-0.2853041847218343,1.289852857589722,2.666524410247803,-0.1132719591259956,-0.01278841495513916,-0.008393287658691406,0.2799959182739258,2,-0.3081184962769482,0.6811485549543993,0.09099822597328011,0.6578897045212904,0.9523177146911621,0.2814493477344513,0.1178007200360298,26.22451782226562,25.96985626220703,22.64248657226562,-1,2,1677634.111956375,4,2,1676669915.666442,1676669834.051682,104,1.104312,0,0,60.36,0,0,1676669916.622493,1677633.509164,0,-0.1981812,98.58078,1676669915.75257,167772201,182416158,0,0,1,1676669915.725558,1,0.39,1
1676669918.248384,43,1676669917.982713,34.21408273268089,-118.3864508717435,246.0489,0,1.452536,351.1045283286352,180,1.559984774854347,6.623039399439913,-9999,1676669918.243416,22.09823608398438,28.75508117675781,22.32577514648438,355.2486267089844,343.6098327636719,12.25643825531006,1677636.687568542,1.012176513671875,0.2936553955078125,-0.0772247314453125,1677636.662671542,1.537811517715454,1.43059229850769,0.2390237599611282,1677636.680851542,-115.2877349853516,118.1059722900391,-266.4034423828125,1677636.651468542,0.4920457991729755,1.802900423162686,-0.3048542972155894,1.786936402320862,1.564911842346191,0.316408634185791,-0.1853612065315247,-0.073606938123703,-0.2582835853099823,2,-0.2801573096713197,0.7288494824287961,0.03387355392516389,0.6238131690516747,0.9283116459846497,0.3001541793346405,0.2194193750619888,22.89113616943359,28.02831268310547,22.59689331054688,-1,2,1677634.111956375,4,2,1676669915.666442,1676669834.051682,104,1.104312,0,0,60.36,0,0,1676669916.622493,1677633.509164,0,-0.1981812,98.58078,1676669915.75257,167772201,182416158,0,0,1,1676669915.725558,1,0.39,1
1676669918.31065,44,1676669917.982713,34.21408273268089,-118.3864508717435,246.0489,0,1.452536,351.1045283286352,180,1.559984774854347,6.623039399439913,-9999,1676669918.302932,20.44090270996094,30.039794921875,22.30581665039062,1.474666595458984,349.8358764648438,12.25672721862793,1677636.747321542,1.146133422851562,0.025604248046875,0.1724853515625,1677636.722424542,0.8194535970687866,1.535116314888,-0.3632186949253082,1677636.740900542,-116.9737243652344,119.3342590332031,-266.2362670898438,1677636.711221542,0.4193190346964439,1.853177347302933,-0.326437015944804,0.9079365134239197,1.440562605857849,-0.4828525185585022,0.3967956900596619,-0.05408391356468201,-0.09905716776847839,2,-0.2596531817958496,0.7513616658999829,-0.00374924322895448,0.6066480053277348,0.9096770882606506,0.3206702470779419,0.2639282643795013,21.42502593994141,29.24863433837891,22.29635620117188,-1,2,1677634.111956375,4,2,1676669915.666442,1676669834.051682,104,1.104312,0,0,60.36,0,0,1676669916.622493,1677633.509164,0,-0.1981812,98.58078,1676669915.75257,167772201,182416158,0,0,1,1676669915.725558,1,0.39,1
1676669918.367879,45,1676669917.982713,34.21408273268089,-118.3864508717435,246.0489,0,1.452536,351.1045283286352,180,1.559984774854347,6.623039399439913,-9999,1676669918.363003,20.10414886474609,29.43270111083984,22.92922973632812,357.1240844726562,345.4852905273438,12.25708198547363,1677636.807075542,1.1805419921875,0.20135498046875,0.050140380859375,1677636.782177542,-1.497536778450012,-1.10628354549408,-0.6468589305877686,1677636.800952542,-117.2538146972656,118.380126953125,-265.53369140625,1677636.770974542,0.4147317317315884,1.906976711341463,-0.3439900344790646,-1.003676414489746,-0.5907410383224487,-0.3671945631504059,0.3042145967483521,-0.272930234670639,-0.2086292505264282,2,-0.262353463651296,0.7657999915809328,-0.01915591420126661,0.586816825306639,0.8887174129486084,0.3372460603713989,0.3105579316616058,20.06820678710938,30.07850646972656,22.41937255859375,-1,2,1677634.111956375,4,2,1676669915.666442,1676669834.051682,104,1.104312,0,0,60.36,0,0,1676669916.622493,1677633.509164,0,-0.1981812,98.58078,1676669915.75257,167772201,182416158,0,0,1,1676669915.725558,1,0.39,1
1676669918.430014,46,1676669917.982713,34.21408273268089,-118.3864508717435,246.0489,0,1.452536,351.1045283286352,180,1.559984774854347,6.623039399439913,-9999,1676669918.422507,23.27030181884766,27.38269805908203,23.07794189453125,345.6058959960938,333.9671020507812,12.25784873962402,1677636.866828542,0.891021728515625,0.3353118896484375,0.300018310546875,1677636.841931542,-2.294535160064697,-3.645853042602539,-0.6121187806129456,1677636.861007542,-113.8738708496094,116.4239959716797,-265.6299133300781,1677636.830728542,0.5437097531035486,1.831816795070137,-0.3623650652869662,-2.226809501647949,-3.243675231933594,-0.8870089054107666,0.006264805793762207,-0.04403135180473328,-0.197378009557724,2,-0.315200008098219,0.7220131377752876,0.02320441105532739,0.6154734650651623,0.9033879041671753,0.3544867038726807,0.2413080334663391,20.78350830078125,28.84428405761719,23.62844848632812,-1,2,1677634.111956375,4,2,1676669915.666442,1676669834.051682,104,1.104312,0,0,60.36,0,0,1676669916.622493,1677633.509164,0,-0.1981812,98.58078,1676669915.75257,167772201,182416158,0,0,1,1676669915.725558,1,0.39,1
1676669918.487099,47,1676669917.982713,34.21408273268089,-118.3864508717435,246.0489,0,1.452536,351.1045283286352,180,1.559984774854347,6.623039399439913,-9999,1676669918.482532,22.52313232421875,25.43331909179688,25.65982055664062,340.185302734375,328.5465087890625,12.25855541229248,1677636.926581542,0.6998443603515625,0.16363525390625,0.48876953125,1677636.901684542,-2.844284057617188,-0.8993292450904846,-2.116268157958984,1677636.921060542,-115.1200256347656,114.5186614990234,-262.583251953125,1677636.890481542,0.7149369770720841,1.724959821870021,-0.3772267154629749,-2.859908819198608,-1.359005808830261,-1.592466831207275,0.04917049407958984,-0.03611397743225098,0.2295571565628052,2,-0.3752911658266859,0.6561517600360774,0.09020041180977301,0.6484484012627623,0.9186639785766602,0.3683435916900635,0.1427571773529053,23.94269561767578,26.62255859375,23.55023193359375,-1,2,1677634.111956375,4,2,1676669915.666442,1676669834.051682,104,1.104312,0,0,60.36,0,0,1676669916.622493,1677633.509164,0,-0.1981812,98.58078,1676669915.75257,167772201,182416158,0,0,1,1676669915.725558,1,0.39,1
1676669918.549865,48,1676669917.982713,34.21408273268089,-118.3864508717435,246.0489,0,1.452536,351.1045283286352,180,1.559984774854347,6.623039399439913,-9999,1676669918.542015,12.12628936767578,27.11924743652344,30.46182250976562,356.9977722167969,345.3589782714844,12.25976181030273,1677636.986335542,-0.9038238525390625,0.625274658203125,0.965911865234375,1677636.961437542,-0.5753746032714844,3.928009986877441,-4.699276447296143,1677636.981110542,-125.6915435791016,116.6110687255859,-258.1890258789062,1677636.950234542,0.9313201817898679,1.89573181405456,-0.5228877754893141,-1.790960431098938,4.62746000289917,-4.545872211456299,-0.2480917572975159,-0.2411597371101379,0.2697356343269348,2,-0.4870261921647778,0.633324905624528,0.06548496383601377,0.5978432535725269,0.821043848991394,0.4993841350078583,0.2765899002552032,19.47322845458984,25.24181365966797,27.9129638671875,-1,2,1677634.111956375,4,2,1676669915.666442,1676669834.051682,104,1.104312,0,0,60.36,0,0,1676669916.622493,1677633.509164,0,-0.1981812,98.58078,1676669915.75257,167772201,182416158,0,0,1,1676669915.725558,1,0.39,1
1676669918.606584,49,1676669917.982713,34.21408273268089,-118.3864508717435,246.0489,0,1.452536,351.1045283286352,180,1.559984774854347,6.623039399439913,-9999,1676669918.601876,10.38060760498047,31.89040374755859,26.03024291992188,6.989833831787109,355.3510437011719,12.26011943817139,1677637.046088542,0.6373291015625,0.7437591552734375,-0.2308807373046875,1677637.021191542,2.055622577667236,-0.1652656495571136,-1.219506144523621,1677637.041161542,-127.17236328125,121.1557922363281,-262.5926513671875,1677637.009988542,0.8868679025678494,1.903159959312427,-0.7242277922012513,3.023049831390381,-0.6221084594726562,-1.442835688591003,-0.01804870367050171,0.2049810886383057,0.3883196115493774,2,-0.5124484554848352,0.5996578807181825,-0.02771138900713782,0.6140349683670956,0.7080205082893372,0.6625572443008423,0.2443859875202179,11.83689880371094,29.53681945800781,28.32272338867188,-1,2,1677634.111956375,4,2,1676669915.666442,1676669834.051682,104,1.104312,0,0,60.36,0,0,1676669916.622493,1677633.509164,0,-0.1981812,98.58078,1676669915.75257,167772201,182416158,0,0,1,1676669915.725558,1,0.39,1
1676669918.670679,50,1676669917.982713,34.21408273268089,-118.3864508717435,246.0489,0,1.452536,351.1045283286352,180,1.559984774854347,6.623039399439913,-9999,1676669918.661462,11.33895874023438,30.85560607910156,26.5052490234375,1.992031097412109,350.3532409667969,12.26028347015381,1677637.105841542,0.92919921875,0.5716094970703125,0.4541015625,1677637.080944542,-0.8677052855491638,-0.7453977465629578,0.5789477825164795,1677637.101213542,-125.9629669189453,119.8990325927734,-262.0503540039062,1677637.069741542,0.8481361366969085,1.882157699101218,-0.7527979128587697,-0.7786892056465149,-0.5741410255432129,0.6111440658569336,0.07331627607345581,0.08528327941894531,-0.2958369851112366,2,-0.5065644929155194,0.595968128499011,-0.04539884386574539,0.6214122503475416,0.6946889162063599,0.6836832761764526,0.2235711961984634,10.24325561523438,31.89270782470703,26.18450927734375,-1,2,1677634.111956375,4,2,1676669915.666442,1676669834.051682,104,1.104312,0,0,60.36,0,0,1676669916.622493,1677634.509736,0,-0.1981812,98.58078,1676669915.75257,167772201,182416158,0,0,1,1676669915.725558,1,0.39,1
1676669918.72618,51,1676669917.982713,34.21408273268089,-118.3864508717435,246.0489,0,1.452536,351.1045283286352,180,1.559984774854347,6.623039399439913,-9999,1676669918.72142,11.56429290771484,30.42317962646484,27.124267578125,2.313228607177734,350.6744384765625,12.26046562194824,1677637.165595542,1.079971313476562,0.5375213623046875,0.3817901611328125,1677637.140697542,-0.0196304265409708,0.5424065589904785,0.2378913909196854,1677637.161264542,-125.8907623291016,119.6287994384766,-261.5843200683594,1677637.129494542,0.8860633277140584,1.904254926974007,-0.707741667429166,-0.1644279062747955,0.8364520668983459,0.5177276730537415,0.1448307633399963,-0.2674747705459595,0.2478485405445099,2,-0.509155219922345,0.6042453515416102,-0.02183842556197746,0.6125125681603044,0.7179774641990662,0.6501194834709167,0.2487029582262039,11.68982696533203,30.34374237060547,27.022216796875,-1,2,1677634.111956375,4,2,1676669915.666442,1676669834.051682,104,1.104312,0,0,60.36,0,0,1676669916.622493,1677634.509736,0,-0.1981812,98.58078,1676669915.75257,167772201,182416158,0,0,1,1676669915.725558,1,0.39,1
1676669918.791053,52,1676669917.982713,34.21408273268089,-118.3864508717435,246.0489,0,1.452536,351.1045283286352,180,1.559984774854347,6.623039399439913,-9999,1676669918.781041,9.14080810546875,30.99640655517578,27.31454467773438,7.623561859130859,355.9847717285156,12.26070499420166,1677637.225352875,0.51300048828125,0.8128662109375,0.3563079833984375,1677637.200451542,-0.02279479429125786,1.249956488609314,-0.7952374815940857,1677637.221319875,-128.2612457275391,120.2069244384766,-261.3845825195312,1677637.189247542,0.8964102491541195,1.937120665366326,-0.7269912243691037,-0.218324601650238,0.8351686000823975,-0.9653274416923523,0.2996206283569336,0.09407281875610352,0.1127119958400726,2,-0.5152930047352613,0.6068668300027485,-0.03460722232607533,0.6041423044487241,0.6976021528244019,0.6646245718002319,0.2676284611225128,10.84551239013672,30.36128234863281,27.49087524414062,-1,2,1677634.111956375,4,2,1676669915.666442,1676669834.051682,104,1.104312,0,0,60.36,0,0,1676669916.622493,1677634.509736,0,-0.1981812,98.58078,1676669915.75257,167772201,182416158,0,0,1,1676669915.725558,1,0.39,1
1676669918.845793,53,1676669917.982713,34.21408273268089,-118.3864508717435,246.0489,0,1.452536,351.1045283286352,180,1.559984774854347,6.623039399439913,-9999,1676669918.840899,8.5855712890625,32.21607208251953,26.12576293945312,10.57708358764648,358.9382934570312,12.26093292236328,1677637.285105875,0.5331573486328125,0.633148193359375,0.0169525146484375,1677637.260208875,0.6976848244667053,0.008699215948581696,-0.06645572185516357,1677637.281367875,-128.8424682617188,121.4547729492188,-262.4848022460938,1677637.249005875,0.855902885221708,1.962963886293724,-0.7520563275007277,0.9965947270393372,0.2096233516931534,0.1538242697715759,-0.07076406478881836,0.1408326029777527,-0.187907874584198,2,-0.506596094935205,0.6188013567401509,-0.06321252807711414,0.5970337311431777,0.6748441457748413,0.6831418871879578,0.2791094481945038,8.665771484375,31.3450927734375,27.15670776367188,-1,2,1677634.111956375,4,2,1676669915.666442,1676669834.051682,104,1.104312,0,0,60.36,0,0,1676669916.622493,1677634.509736,0,-0.1981812,98.58078,1676669915.75257,167772201,182416158,0,0,1,1676669915.725558,1,0.39,1
1676669918.910436,54,1676669917.982713,34.21408273268089,-118.3864508717435,246.0489,0,1.452536,351.1045283286352,180,1.559984774854347,6.623039399439913,-9999,1676669918.900519,9.754714965820312,32.56718444824219,25.06353759765625,7.734981536865234,356.09619140625,12.26122283935547,1677637.344859875,0.559478759765625,0.6041717529296875,0.0944976806640625,1677637.319961875,0.2892917394638062,-1.910951495170593,-0.372540295124054,1677637.341420875,-127.5487670898438,121.7935028076172,-263.592041015625,1677637.308758875,0.8396866477548778,1.923839426759245,-0.7715188351656445,0.09919187426567078,-1.608309626579285,-0.3071482181549072,-0.2116725444793701,-0.2984364032745361,-0.2224493324756622,2,-0.5063058837877956,0.6062853521891851,-0.06583729462642907,0.6097030157908927,0.6726403832435608,0.6972247958183289,0.24785515666008,8.82220458984375,32.08740234375,26.07281494140625,-1,2,1677634.111956375,4,2,1676669915.666442,1676669834.051682,104,1.104312,0,0,60.36,0,0,1676669916.622493,1677634.509736,0,-0.1981812,98.58078,1676669915.75257,167772201,182416158,0,0,1,1676669915.725558,1,0.39,1
1676669918.965243,55,1676669917.982713,34.21408273268089,-118.3864508717435,246.0489,0,1.452536,351.1045283286352,180,1.559984774854347,6.623039399439913,-9999,1676669918.96041,8.198654174804688,33.1221923828125,23.49945068359375,12.74728965759277,1.108499646186829,12.26131534576416,1677637.404612875,0.5973052978515625,0.5828399658203125,0.0836944580078125,1677637.379715875,0.4438245892524719,1.488206386566162,-0.2259156852960587,1677637.401470875,-129.481689453125,122.4518585205078,-265.1761474609375,1677637.368511875,0.8253730880748944,1.823868295368828,-0.8034256267305863,0.08051082491874695,0.56244957447052,-0.003403891576454043,-0.4868139624595642,0.0250123143196106,-0.2278406918048859,2,-0.5111558356298921,0.5706417307440845,-0.05720510354531977,0.6401680760521823,0.6721317768096924,0.7197385430335999,0.1738245487213135,10.08540344238281,32.69684600830078,24.1121826171875,-1,2,1677634.111956375,4,2,1676669915.666442,1676669834.051682,104,1.104312,0,0,60.36,0,0,1676669916.622493,1677634.509736,0,-0.1981812,98.58078,1676669915.75257,167772201,182416158,0,0,1,1676669915.725558,1,0.39,1
1676669919.030839,56,1676669917.982713,34.21408273268089,-118.3864508717435,246.0489,0,1.452536,351.1045283286352,180,1.559984774854347,6.623039399439913,-9999,1676669919.020001,-0.971282958984375,35.81017303466797,21.05743408203125,33.97823333740234,22.33944320678711,12.26149559020996,1677637.464365875,0.383575439453125,0.378204345703125,0.1422119140625,1677637.439468875,1.495946288108826,1.72442364692688,-3.859101057052612,1677637.461527875,-139.1257781982422,125.1014404296875,-267.8099365234375,1677637.428265875,0.7799086261768017,1.891175069787678,-0.8991809933279833,1.481034159660339,1.502309322357178,-3.500189542770386,0.2166773080825806,-0.2291980385780334,-0.2455542981624603,2,-0.5128665707188534,0.5787481935512334,-0.1255564864735705,0.6214933875415136,0.5905889272689819,0.782817542552948,0.1959631890058517,5.946029663085938,33.98624420166016,23.1522216796875,-1,2,1677634.111956375,4,2,1676669915.666442,1676669834.051682,104,1.104312,0,0,60.36,0,0,1676669916.622493,1677634.509736,0,-0.1981812,98.58078,1676669915.75257,167772201,182416158,0,0,1,1676669915.725558,1,0.39,1
1676669919.084712,57,1676669917.982713,34.21408273268089,-118.3864508717435,246.0489,0,1.452536,351.1045283286352,180,1.559984774854347,6.623039399439913,-9999,1676669919.079872,-13.11749267578125,36.24018096923828,14.82916259765625,64.01496887207031,52.37617874145508,12.26297569274902,1677637.524119875,0.4036102294921875,0.5804290771484375,0.03936767578125,1677637.499221875,2.376227617263794,3.895739078521729,-3.698637962341309,1677637.521583875,-151.3073120117188,125.4001159667969,-274.3359375,1677637.488018875,0.7570020146266687,2.023564257609718,-1.144053467644706,2.079996347427368,3.675890922546387,-3.585111379623413,0.04024258255958557,-0.4042915105819702,-0.07811570167541504,2,-0.5301833866018799,0.5562722992593309,-0.2616698884239042,0.5839482406380825,0.3722023963928223,0.9103187322616577,0.1810665875673294,-4.95086669921875,36.18887329101562,19.7386474609375,-1,2,1677634.111956375,4,2,1676669915.666442,1676669834.051682,104,1.104312,0,0,60.36,0,0,1676669916.622493,1677634.509736,0,-0.1981812,98.58078,1676669915.75257,167772201,182416158,0,0,1,1676669915.725558,1,0.39,1
1676669919.1515,58,1676669918.982717,34.21408387283289,-118.3864524171993,245.737,0,1.949106,351.1045275250913,180,1.546983166653983,6.979065583615362,-9999,1676669919.139517,-26.995849609375,31.16482543945312,3.406402587890625,95.15650939941406,83.51772308349609,12.26535320281982,1677637.583872875,0.064361572265625,0.821441650390625,-0.2281494140625,1677637.558975875,4.072773933410645,2.927069902420044,-6.238294124603271,1677637.581636875,-165.3466796875,119.7357330322266,-286.0061340332031,1677637.547772875,0.737691266314866,2.234506980965565,-1.454772679807011,3.651426792144775,3.31742000579834,-5.623428344726562,0.2185354828834534,-0.2045348882675171,-0.2844953536987305,2,-0.5138090575113183,0.5212078285337496,-0.4395074198551966,0.5207453820534459,0.09118735045194626,0.9932767748832703,0.07131469249725342,-17.74644470214844,35.76019287109375,11.48419189453125,-1,2,1677634.111956375,4,2,1676669915.666442,1676669834.051682,104,1.104312,0,0,60.36,0,0,1676669916.622493,1677634.509736,0,-0.1981812,98.58078,1676669915.75257,167772201,182416158,0,0,1,1676669915.725558,1,0.39,1
1676669919.204204,59,1676669918.982717,34.21408387283289,-118.3864524171993,245.737,0,1.949106,351.1045275250913,180,1.546983166653983,6.979065583615362,-9999,1676669919.199443,-32.74714660644531,24.87779235839844,-2.39947509765625,107.2230987548828,95.58431243896484,12.26678657531738,1677637.643625875,-1.176483154296875,1.523513793945312,-0.966033935546875,1677637.618728875,1.452668309211731,1.093084573745728,-2.014777660369873,1677637.641686875,-169.919189453125,114.1461791992188,-291.2930297851562,1677637.607525875,-2.615804727440629,-1.038743975569352,-1.219132180909809,3.254287004470825,-0.2189339250326157,-5.246057987213135,-0.5050959587097168,0.4856681823730469,-0.5117928385734558,2,-0.522124004008639,0.3741838886095792,-0.6134765065010739,0.4593685859736305,-0.2968449592590332,0.9388007521629333,-0.1747458875179291,-30.88214111328125,27.20304870605469,0.94598388671875,-1,2,1677637.617484875,4,2,1676669919.171971,1676669834.051682,104,1.104312,0,0,60.36,0,0,1676669916.622493,1677634.509736,0,-0.1981812,98.58078,1676669915.75257,167772201,182416158,0,0,1,1676669915.725558,1,0.39,1
1676669919.270041,60,1676669918.982717,34.21408387283289,-118.3864524171993,245.737,0,1.949106,351.1045275250913,180,1.546983166653983,6.979065583615362,-9999,1676669919.259064,-29.84619140625,27.78286743164062,-1.1646728515625,99.24424743652344,87.60546112060547,12.26736068725586,1677637.703379875,-0.1882781982421875,1.083831787109375,0.7509002685546875,1677637.678481875,-0.9665056467056274,-1.417437076568604,1.187729597091675,1677637.701737875,-167.0577697753906,117.6142272949219,-288.1441650390625,1677637.667278875,-2.589850434998092,-0.9114143211197914,-1.273264970378312,-1.556612014770508,0.2091598212718964,2.050919055938721,0.1050883829593658,0.5843420624732971,-0.3612490892410278,2,-0.4859079474790954,0.4172458665618065,-0.6234766992504208,0.4484151395164758,-0.2317058444023132,0.9560630917549133,-0.1795987039804459,-31.39610290527344,26.83608245849609,-2.713623046875,-1,2,1677637.617484875,4,2,1676669919.171971,1676669834.051682,104,1.104312,0,0,60.36,0,0,1676669916.622493,1677634.509736,0,-0.1981812,98.58078,1676669915.75257,167772201,182416158,0,0,1,1676669915.725558,1,0.39,1
1676669919.323692,61,1676669918.982717,34.21408387283289,-118.3864524171993,245.737,0,1.949106,351.1045275250913,180,1.546983166653983,6.979065583615362,-9999,1676669919.318918,-28.99299621582031,29.05035400390625,2.542236328125,85.17633056640625,73.53754425048828,12.26850414276123,1677637.763132875,-0.2754974365234375,1.088760375976562,0.022247314453125,1677637.738235875,2.69259786605835,-3.540032863616943,0.6448935270309448,1677637.761789875,-166.0291748046875,118.2465667724609,-286.1206665039062,1677637.727032875,-2.290785393321582,-0.8710524970874446,-1.249784666232309,3.188685178756714,-5.055205821990967,0.2570918202400208,-0.02700671553611755,-0.0617402195930481,0.54924476146698,2,-0.5305549471862921,0.3419187670313251,-0.5679232796286571,0.5282670962705793,-0.2413801401853561,0.9489166736602783,-0.2032060027122498,-29.6708984375,28.44321441650391,1.778411865234375,-1,2,1677637.617484875,4,2,1676669919.171971,1676669834.051682,104,1.104312,0,0,60.36,0,0,1676669916.622493,1677634.509736,0,-0.1981812,98.58078,1676669915.75257,167772201,182416158,0,0,1,1676669915.725558,1,0.39,1
1676669919.389954,62,1676669918.982717,34.21408387283289,-118.3864524171993,245.737,0,1.949106,351.1045275250913,180,1.546983166653983,6.979065583615362,-9999,1676669919.378494,-28.76004028320312,29.25442504882812,1.7850341796875,88.64105224609375,77.00225830078125,12.26889133453369,1677637.822885875,-0.175079345703125,0.94580078125,-0.136810302734375,1677637.797988875,-0.6512078642845154,1.154716014862061,-0.658039927482605,1677637.821843875,-166.5814208984375,117.7707977294922,-287.2129516601562,1677637.786785875,-2.034929688728412,-0.6991108226573006,-1.222721637988174,-0.4801442325115204,1.257172107696533,-0.1034669578075409,0.2088829576969147,0.270829975605011,-0.05255508422851562,2,-0.5219973724216506,0.3114188703570009,-0.5512372301475762,0.5715544147203721,-0.2195031046867371,0.9400311708450317,-0.2610740661621094,-28.39791870117188,29.70638275146484,2.038330078125,-1,2,1677637.617484875,4,2,1676669919.171971,1676669834.051682,104,1.104312,0,0,60.36,0,0,1676669916.622493,1677634.509736,0,-0.1981812,98.58078,1676669915.75257,167772201,182416158,0,0,1,1676669915.725558,1,0.39,1
1676669919.443478,63,1676669918.982717,34.21408387283289,-118.3864524171993,245.737,0,1.949106,351.1045275250913,180,1.546983166653983,6.979065583615362,-9999,1676669919.438472,-29.55715942382812,28.43000030517578,0.775970458984375,91.06329345703125,79.42449951171875,12.26925563812256,1677637.882639875,-0.1261749267578125,1.201385498046875,-0.2327117919921875,1677637.857742875,0.2492460459470749,0.4154368937015533,-0.1935526877641678,1677637.881898875,-167.2067108154297,117.6138305664062,-287.9788818359375,1677637.846538875,-2.18456985044797,-0.7789545624145028,-1.212568258194995,0.04183779284358025,0.8317505121231079,-0.413613498210907,-0.09871208667755127,0.01181405782699585,0.3663511276245117,2,-0.5197109446443553,0.3242579357660408,-0.5752129820729661,0.5421136665596731,-0.2463196516036987,0.9365195631980896,-0.2495146542787552,-29.62750244140625,28.36083984375,0.5931396484375,-1,2,1677637.617484875,4,2,1676669919.171971,1676669834.051682,104,1.104312,0,0,60.36,0,0,1676669916.622493,1677634.509736,0,-0.1981812,98.58078,1676669915.75257,167772201,182416158,0,0,1,1676669915.725558,1,0.39,1
1676669919.510073,64,1676669918.982717,34.21408387283289,-118.3864524171993,245.737,0,1.949106,351.1045275250913,180,1.546983166653983,6.979065583615362,-9999,1676669919.498009,-29.6654052734375,28.11597442626953,2.3028564453125,87.33592224121094,75.69713592529297,12.26968097686768,1677637.942392875,0.058441162109375,1.180511474609375,-0.0706329345703125,1677637.917495875,-0.2150252163410187,-1.473156094551086,0.126592829823494,1677637.941946875,-166.7160186767578,117.6974334716797,-285.1679077148438,1677637.906292875,-2.175547003798982,-0.7978730646861875,-1.203420049662246,-0.1110946759581566,-1.411827445030212,0.08484385907649994,0.2397539019584656,0.2755892872810364,-0.009197235107421875,2,-0.525845359457686,0.3132021913173461,-0.5706052253872043,0.5475405362711735,-0.257118433713913,0.9332728981971741,-0.2507821023464203,-29.59417724609375,28.18695831298828,1.435516357421875,-1,2,1677637.617484875,4,2,1676669919.171971,1676669834.051682,104,1.104312,0,0,60.36,0,0,1676669916.622493,1677634.509736,0,-0.1981812,98.58078,1676669915.75257,167772201,182416158,0,0,1,1676669915.725558,1,0.39,1
1676669919.562766,65,1676669918.982717,34.21408387283289,-118.3864524171993,245.737,0,1.949106,351.1045275250913,180,1.546983166653983,6.979065583615362,-9999,1676669919.557914,-28.17007446289062,29.35359191894531,4.658172607421875,84.38734436035156,72.74855804443359,12.27010345458984,1677638.002145875,-0.2189178466796875,1.05877685546875,0.1214599609375,1677637.977248875,-0.5788966417312622,-0.2600694000720978,0.666844367980957,1677638.001992875,-165.3156433105469,118.7044677734375,-283.592041015625,1677637.966045875,-2.188305216020171,-0.8866327795504075,-1.227357192661486,-0.4454439878463745,-0.6372691988945007,0.534075140953064,0.2779596149921417,0.3321098685264587,0.3570307493209839,2,-0.5502582012519637,0.3013401890442946,-0.5428622246119276,0.5583104199927318,-0.2609460353851318,0.9416021704673767,-0.2128200083971024,-29.20713806152344,28.73800659179688,4.119964599609375,-1,2,1677637.617484875,4,2,1676669919.171971,1676669834.051682,104,1.104312,0,0,60.36,0,0,1676669916.622493,1677634.509736,0,-0.1981812,98.58078,1676669915.75257,167772201,182416158,0,0,1,1676669915.725558,1,0.39,1
1676669919.630388,66,1676669918.982717,34.21408387283289,-118.3864524171993,245.737,0,1.949106,351.1045275250913,180,1.546983166653983,6.979065583615362,-9999,1676669919.617572,-27.62419128417969,29.33405303955078,8.931304931640625,82.63644409179688,70.99765014648438,12.27075099945068,1677638.061899875,-0.3885498046875,0.870391845703125,-0.3184814453125,1677638.037002875,-2.962812662124634,-0.8777424693107605,0.272306352853775,1677638.062039875,-164.5159454345703,117.8656921386719,-278.1029052734375,1677638.025798875,-2.338102825094736,-1.046418329949391,-1.302778828506185,-2.666756868362427,-0.5885925889015198,0.3686028122901917,-0.08396428823471069,-0.06351053714752197,0.01761364936828613,2,-0.5710749040290961,0.3279925436056974,-0.5155505202464682,0.5481805803284734,-0.2292376458644867,0.9642977714538574,-0.1325886845588684,-27.67030334472656,29.79281616210938,6.5643310546875,-1,2,1677637.617484875,4,2,1676669919.171971,1676669834.051682,104,1.104312,0,0,60.36,0,0,1676669916.622493,1677634.509736,0,-0.1981812,98.58078,1676669915.75257,167772201,182416158,0,0,1,1676669915.725558,1,0.39,1
1676669919.68221,67,1676669918.982717,34.21408387283289,-118.3864524171993,245.737,0,1.949106,351.1045275250913,180,1.546983166653983,6.979065583615362,-9999,1676669919.677504,-25.8875732421875,28.28588104248047,15.52679443359375,79.63717651367188,67.99839019775391,12.27132225036621,1677638.121652875,-0.25909423828125,1.217819213867188,-0.2203521728515625,1677638.096755875,-2.030787706375122,-0.7674649357795715,0.5308817028999329,1677638.122088875,-163.2991638183594,117.5684051513672,-272.0441589355469,1677638.085552875,-3.026887331608686,-1.786992860957293,-1.352544913186817,-2.299502611160278,-1.171905040740967,0.4820745289325714,-0.1311086565256119,-0.02798974514007568,-0.3254240751266479,2,-0.6292439053519703,0.3567574517698934,-0.4600019053562016,0.5149508242476843,-0.2114817053079605,0.9762775301933289,0.04644754528999329,-26.90211486816406,28.56098937988281,12.74386596679688,-1,2,1677637.617484875,4,2,1676669919.171971,1676669834.051682,104,1.104312,0,0,60.36,0,0,1676669916.622493,1677635.510318,0,-0.269516,98.58161,1676669915.75257,167772201,182416158,0,0,1,1676669915.725558,1,0.39,1
1676669919.751473,68,1676669918.982717,34.21408387283289,-118.3864524171993,245.737,0,1.949106,351.1045275250913,180,1.546983166653983,6.979065583615362,-9999,1676669919.737045,-25.92289733886719,27.59516906738281,16.41690063476562,81.89152526855469,70.25273132324219,12.27174663543701,1677638.181405875,0.0043487548828125,0.9531707763671875,0.0610809326171875,1677638.156508875,-0.6016722917556763,0.9075549840927124,-0.02069968543946743,1677638.182138875,-163.2013092041016,116.7539520263672,-272.2168884277344,1677638.145305875,2.848837801562075,-2.193292422213739,-1.329436122738396,-0.7072396278381348,0.8285784125328064,-0.1284918338060379,0.08810944855213165,0.2504064440727234,0.04650115966796875,2,-0.6516928129472065,0.3807617340134256,-0.4355722093178763,0.4905035625643329,-0.194188579916954,0.9710137248039246,0.1393660455942154,-25.91871643066406,27.81298828125,16.23553466796875,-1,2,1677637.617484875,4,2,1676669919.171971,1676669834.051682,104,1.104312,0,0,60.36,0,0,1676669916.622493,1677635.510318,0,-0.269516,98.58161,1676669915.75257,167772201,182416158,0,0,1,1676669915.725558,1,0.39,1
1676669919.801541,69,1676669918.982717,34.21408387283289,-118.3864524171993,245.737,0,1.949106,351.1045275250913,180,1.546983166653983,6.979065583615362,-9999,1676669919.796955,-24.08610534667969,28.74156188964844,17.39315795898438,77.29043579101562,65.65164947509766,12.27218532562256,1677638.24115625,0.0543975830078125,0.8865814208984375,-0.06689453125,1677638.21625925,-0.2542533278465271,-0.3590867817401886,1.251284122467041,1677638.24218125,-161.5337219238281,118.2174224853516,-271.2010192871094,1677638.205058875,2.640477550660639,-2.385556514915105,-1.327372366524439,-0.4537970721721649,-0.5830240845680237,1.205696702003479,0.2311350107192993,-0.07279825210571289,-0.2847516536712646,2,-0.6528778602688314,0.4017849929569804,-0.4236109498147844,0.482569092725379,-0.165354385972023,0.9705184102058411,0.1753613650798798,-25.40242004394531,27.66909790039062,16.89813232421875,-1,2,1677637.617484875,4,2,1676669919.171971,1676669834.051682,104,1.104312,0,0,60.36,0,0,1676669916.622493,1677635.510318,0,-0.269516,98.58161,1676669915.75257,167772201,182416158,0,0,1,1676669915.725558,1,0.39,1
1676669919.86962,70,1676669918.982717,34.21408387283289,-118.3864524171993,245.737,0,1.949106,351.1045275250913,180,1.546983166653983,6.979065583615362,-9999,1676669919.856733,-23.97549438476562,28.76667785644531,16.78817749023438,81.52571105957031,69.88691711425781,12.27264213562012,1677638.30090925,-0.18475341796875,0.6534423828125,-0.03631591796875,1677638.27601225,-0.6238958239555359,1.608996748924255,0.304730087518692,1677638.30222925,-161.6234741210938,118.1936492919922,-271.9325561523438,1677638.26480925,2.392568711522169,-2.611150018625183,-1.350631770527739,-0.4757837653160095,1.265751838684082,0.4881539940834045,0.06043802201747894,-0.1781168580055237,-0.2292275428771973,2,-0.6410655681469501,0.4280476220743584,-0.4111014011855759,0.4866269549082197,-0.1104868873953819,0.9758615493774414,0.1883796602487564,-23.83734130859375,29.09905242919922,17.35214233398438,-1,2,1677637.617484875,4,2,1676669919.171971,1676669834.051682,104,1.104312,0,0,60.36,0,0,1676669916.622493,1677635.510318,0,-0.269516,98.58161,1676669915.75257,167772201,182416158,0,0,1,1676669915.725558,1,0.39,1
1676669919.921228,71,1676669918.982717,34.21408387283289,-118.3864524171993,245.737,0,1.949106,351.1045275250913,180,1.546983166653983,6.979065583615362,-9999,1676669919.916524,-25.60597229003906,28.39297485351562,15.193603515625,89.2650146484375,77.626220703125,12.27302646636963,1677638.36066225,-0.26904296875,0.694915771484375,0.2398834228515625,1677638.33576525,-0.5029358267784119,1.680578947067261,-0.1062755733728409,1677638.36227825,-163.1190032958984,117.5635986328125,-273.7158203125,1677638.32456225,2.280445084009505,-2.61642459496985,-1.317685605686014,-0.6623362898826599,1.764565944671631,-0.116584911942482,-0.1197671592235565,-0.3811783790588379,-0.1975511312484741,2,-0.6275722618316089,0.4631287026680319,-0.4332835822337098,0.4515862460573644,-0.1255484074354172,0.9681381583213806,0.2166702747344971,-24.95118713378906,28.76184844970703,16.13839721679688,-1,2,1677637.617484875,4,2,1676669919.171971,1676669834.051682,104,1.104312,0,0,60.36,0,0,1676669916.622493,1677635.510318,0,-0.269516,98.58161,1676669915.75257,167772201,182416158,0,0,1,1676669915.725558,1,0.39,1
1676669919.989818,72,1676669918.982717,34.21408387283289,-118.3864524171993,245.737,0,1.949106,351.1045275250913,180,1.546983166653983,6.979065583615362,-9999,1676669919.976182,-26.30838012695312,28.74042510986328,12.5677490234375,94.07728576660156,82.43849182128906,12.27294921875,1677638.42041625,0.165802001953125,1.25543212890625,0.561920166015625,1677638.39551925,0.3550438582897186,1.398691892623901,0.2587000131607056,1677638.42232525,-163.6710510253906,118.0308685302734,-276.5346069335938,1677638.38431525,2.26312106965965,-2.541175920440643,-1.309422311242899,0.3252505660057068,1.443846702575684,0.1530132591724396,0.04982069134712219,-0.04115492105484009,0.2867569923400879,2,-0.6092437295575506,0.4852094821049628,-0.4596700974742996,0.4267284407217776,-0.1459968835115433,0.9660358428955078,0.213212326169014,-26.0989990234375,28.39777374267578,14.05413818359375,-1,2,1677637.617484875,4,2,1676669919.171971,1676669834.051682,104,1.104312,0,0,60.36,0,0,1676669916.622493,1677635.510318,0,-0.269516,98.58161,1676669915.75257,167772201,182416158,0,0,1,1676669915.725558,1,0.39,1
1676669920.04072,73,1676669918.982717,34.21408387283289,-118.3864524171993,245.737,0,1.949106,351.1045275250913,180,1.546983166653983,6.979065583615362,-9999,1676669920.036,-25.81745910644531,30.07569122314453,10.44778442382812,96.41464233398438,84.77585601806641,12.27330780029297,1677638.48016925,0.1719970703125,1.105850219726562,0.0575408935546875,1677638.45527225,-0.1311817169189453,1.341456890106201,0.9678800702095032,1677638.48237525,-163.1254119873047,119.6734313964844,-278.72021484375,1677638.44406925,2.161383878450862,-2.558312637856329,-1.330599217390834,-0.2448580712080002,1.472259879112244,0.9303456544876099,0.4112356305122375,0.3872902393341064,0.2463402450084686,2,-0.5812643241007016,0.5112845488777032,-0.4778777564810918,0.4151537056953148,-0.1310232281684875,0.9712911248207092,0.1985602080821991,-26.14524841308594,29.34078216552734,11.59103393554688,-1,2,1677637.617484875,4,2,1676669919.171971,1676669834.051682,104,1.104312,0,0,60.36,0,0,1676669916.622493,1677635.510318,0,-0.269516,98.58161,1676669915.75257,167772201,182416158,0,0,1,1676669915.725558,1,0.39,1
1676669920.110078,74,1676669918.982717,34.21408387283289,-118.3864524171993,245.737,0,1.949106,351.1045275250913,180,1.546983166653983,6.979065583615362,-9999,1676669920.095554,-24.60212707519531,31.67266082763672,8.3892822265625,98.71009826660156,87.07130432128906,12.27376174926758,1677638.53992225,0.1655731201171875,0.7077789306640625,0.0217437744140625,1677638.51502525,0.03490312397480011,1.697300672531128,1.164207816123962,1677638.54242925,-162.0536804199219,121.4015808105469,-280.7563781738281,1677638.50382225,1.916471327628612,-2.727096820744899,-1.357482181105529,-0.007806762121617794,1.355712413787842,1.132407188415527,0.1338872611522675,-0.06842970848083496,-0.06318819522857666,2,-0.5489365741751308,0.5436497918184997,-0.4842870552826779,0.4105843789800008,-0.08525753021240234,0.9773346781730652,0.1937729120254517,-25.02828979492188,30.88678741455078,9.83294677734375,-1,2,1677637.617484875,4,2,1676669919.171971,1676669834.051682,104,1.104312,0,0,60.36,0,0,1676669916.622493,1677635.510318,0,-0.269516,98.58161,1676669915.75257,167772201,182416158,0,0,1,1676669915.725558,1,0.39,1
1676669920.160255,75,1676669919.98272,34.21408725073026,-118.3864528309657,245.7686,0,2.025488,351.1045272813337,180,1.53258098778361,7.489848180239176,-9999,1676669920.155523,-24.80218505859375,31.81071472167969,5.990570068359375,106.0941314697266,94.45533752441406,12.27421379089355,1677638.59967625,-0.29449462890625,1.6455078125,0.0705413818359375,1677638.57477925,-0.7269295454025269,1.859446167945862,-0.2580664455890656,1677638.60248325,-162.4519348144531,120.9388122558594,-283.3263549804688,1677638.56357525,1.708475129875865,-2.836706083684067,-1.394946068097574,0.2055775672197342,1.216989159584045,0.04567473009228706,0.00133785605430603,0.1653088927268982,-0.2639684677124023,2,-0.5072088380696542,0.5711195788093365,-0.5047220010534338,0.4022651835618989,-0.05251587554812431,0.9845781326293945,0.1668767631053925,-23.9083251953125,32.36930084228516,7.001739501953125,-1,2,1677637.617484875,4,2,1676669919.171971,1676669834.051682,104,1.104312,0,0,60.36,0,0,1676669916.622493,1677635.510318,0,-0.269516,98.58161,1676669915.75257,167772201,182416158,0,0,1,1676669915.725558,1,0.39,1
1676669920.229781,76,1676669919.98272,34.21408725073026,-118.3864528309657,245.7686,0,2.025488,351.1045272813337,180,1.53258098778361,7.489848180239176,-9999,1676669920.215375,-25.53805541992188,32.00184631347656,3.77459716796875,111.8639678955078,100.2251815795898,12.27467918395996,1677638.65942925,-0.5259857177734375,0.4415130615234375,-0.2077178955078125,1677638.63453225,0.4449779987335205,1.003821015357971,-0.05954774841666222,1677638.66253725,-162.7274932861328,121.2198944091797,-285.248046875,1677638.62332925,1.69828566848275,-2.710322768427924,-1.361748437912797,0.1571468859910965,1.670036911964417,-0.02826586924493313,-0.2891636788845062,0.1286739706993103,-0.580066442489624,2,-0.4808351599023911,0.6025450115299191,-0.5310278286915128,0.3517760744947865,-0.08675186336040497,0.9782289266586304,0.1885258853435516,-25.22032165527344,31.85700225830078,4.30853271484375,-1,2,1677637.617484875,4,2,1676669919.171971,1676669834.051682,104,1.104312,0,0,60.36,0,0,1676669916.622493,1677635.510318,0,-0.269516,98.58161,1676669915.75257,167772201,182416158,0,0,1,1676669915.725558,1,0.39,1
1676669920.279856,77,1676669919.98272,34.21408725073026,-118.3864528309657,245.7686,0,2.025488,351.1045272813337,180,1.53258098778361,7.489848180239176,-9999,1676669920.275055,-25.89068603515625,31.51573181152344,2.358154296875,109.6611633300781,98.02236938476562,12.27507305145264,1677638.71918325,-0.6263885498046875,0.97967529296875,-0.0644073486328125,1677638.69428525,1.30663526058197,-0.8296564221382141,-0.3553527593612671,1677638.69256325,-162.7356109619141,120.8588256835938,-285.9852905273438,1677638.68308225,1.844531611836908,-2.558597116045257,-1.398677576795696,1.184043169021606,-0.6940317749977112,-0.1703803986310959,-0.6681473255157471,-0.4341225028038025,-0.06091737747192383,2,-0.4724289373348018,0.5901697901960981,-0.5476865362527435,0.3585385829726109,-0.0942886546254158,0.9852241277694702,0.1429789662361145,-25.16677856445312,32.11299896240234,2.565643310546875,-1,2,1677637.617484875,4,2,1676669919.171971,1676669834.051682,104,1.104312,0,0,60.36,0,0,1676669916.622493,1677635.510318,0,-0.269516,98.58161,1676669915.75257,167772201,182416158,0,0,1,1676669915.725558,1,0.39,1
1676669920.342566,78,1676669919.98272,34.21408725073026,-118.3864528309657,245.7686,0,2.025488,351.1045272813337,180,1.53258098778361,7.489848180239176,-9999,1676669920.33476,-27.99180603027344,29.80905914306641,0.844390869140625,113.0769500732422,101.4381561279297,12.27544403076172,1677638.77893625,0.056884765625,1.106903076171875,-0.2788543701171875,1677638.75403925,0.8437125682830811,0.2016265988349915,-1.178926229476929,1677638.75262125,-164.4135589599609,120.0540466308594,-287.1845092773438,1677638.74283525,2.381932736645963,-2.077652860660862,-1.420443382360463,1.063677668571472,-0.366393655538559,-1.107191681861877,-0.2021746188402176,-0.04343634843826294,-0.2588688135147095,2,-0.4842496480362413,0.5494160705947356,-0.5655134447190024,0.3792609092768917,-0.1309552937746048,0.9887182712554932,0.07271148264408112,-26.11378479003906,31.05656433105469,1.80999755859375,-1,2,1677637.617484875,4,2,1676669919.171971,1676669834.051682,104,1.104312,0,0,60.36,0,0,1676669916.622493,1677635.510318,0,-0.269516,98.58161,1676669915.75257,167772201,182416158,0,0,1,1676669915.725558,1,0.39,1
1676669920.399302,79,1676669919.98272,34.21408725073026,-118.3864528309657,245.7686,0,2.025488,351.1045272813337,180,1.53258098778361,7.489848180239176,-9999,1676669920.394648,-28.80029296875,29.11599731445312,-2.354278564453125,120.5010528564453,108.8622665405273,12.27586650848389,1677638.83868925,0.4434967041015625,1.126312255859375,0.10418701171875,1677638.81379225,0.1236191466450691,1.535549402236938,-0.3497928977012634,1677638.81267625,-165.9888458251953,118.0462493896484,-290.69091796875,1677638.80258925,2.638073592853489,-1.742889486071272,-1.367775337129988,-0.02950252592563629,2.498087644577026,-0.7384743690490723,0.5273860692977905,0.2701107263565063,-0.07153058052062988,2,-0.4731555783535034,0.5416528241054757,-0.6036772696179992,0.3439618463255844,-0.1986507177352905,0.9794619083404541,0.0345279648900032,-28.63653564453125,29.52936553955078,-0.11566162109375,-1,2,1677637.617484875,4,2,1676669919.171971,1676669834.051682,104,1.104312,0,0,60.36,0,0,1676669916.622493,1677635.510318,0,-0.269516,98.58161,1676669915.75257,167772201,182416158,0,0,1,1676669915.725558,1,0.39,1
1676669920.462674,80,1676669919.98272,34.21408725073026,-118.3864528309657,245.7686,0,2.025488,351.1045272813337,180,1.53258098778361,7.489848180239176,-9999,1676669920.454228,-27.52003479003906,29.44321441650391,-5.45721435546875,122.4013061523438,110.7625122070312,12.27624797821045,1677638.89844325,-0.0784759521484375,0.8561859130859375,-0.1831207275390625,1677638.87354525,0.8732534646987915,1.426709771156311,0.3421405553817749,1677638.87272525,-165.3906555175781,118.4216156005859,-293.0316467285156,1677638.86234225,2.759003304016452,-1.563800071818681,-1.377732145303119,0.75719153881073,1.245400667190552,0.4842069447040558,0.4911175966262817,-0.007269382476806641,0.02499336004257202,2,-0.4482699241129516,0.5462443643701378,-0.6229379170555368,0.3355882903387398,-0.1918622404336929,0.9814209342002869,-0.001342339091934264,-28.38783264160156,29.14764404296875,-2.925048828125,-1,2,1677637.617484875,4,2,1676669919.171971,1676669834.051682,104,1.104312,0,0,60.36,0,0,1676669916.622493,1677635.510318,0,-0.269516,98.58161,1676669915.75257,167772201,182416158,0,0,1,1676669915.725558,1,0.39,1
1676669920.518806,81,1676669919.98272,34.21408725073026,-118.3864528309657,245.7686,0,2.025488,351.1045272813337,180,1.53258098778361,7.489848180239176,-9999,1676669920.513872,-27.65803527832031,28.90341949462891,-8.157440185546875,123.0773315429688,111.4385375976562,12.27652263641357,1677638.95819625,-0.727935791015625,0.9990997314453125,0.066802978515625,1677638.93329925,0.8720545172691345,0.01795210316777229,-0.1153143420815468,1677638.93277725,-164.5580596923828,118.1224517822266,-296.3606567382812,1677638.92209525,3.049279143643869,-1.217187509371669,-1.37734641669978,0.9087980985641479,0.2852410078048706,-0.04991584271192551,-0.1114280223846436,-0.1651391386985779,-0.1174188777804375,2,-0.4168867664586556,0.5412204771331873,-0.6495525389144496,0.3337172089365714,-0.1803505420684814,0.9813468456268311,-0.06657163798809052,-27.67120361328125,29.28373718261719,-6.38226318359375,-1,2,1677637.617484875,4,2,1676669919.171971,1676669834.051682,104,1.104312,0,0,60.36,0,0,1676669916.622493,1677635.510318,0,-0.269516,98.58161,1676669915.75257,167772201,182416158,0,0,1,1676669915.725558,1,0.39,1
1676669920.581716,82,1676669919.98272,34.21408725073026,-118.3864528309657,245.7686,0,2.025488,351.1045272813337,180,1.53258098778361,7.489848180239176,-9999,1676669920.573771,-27.5625,28.1475830078125,-9.82183837890625,125.0231628417969,113.3843765258789,12.27681350708008,1677639.01794925,-0.23895263671875,0.9305572509765625,-0.225433349609375,1677638.99305225,0.7100487947463989,0.4566213488578796,-0.4165775179862976,1677638.99283125,-164.4693603515625,117.8868713378906,-297.6764526367188,1677638.98184925,-3.029879962833165,-0.9930177137635313,-1.356111832569284,0.6905865073204041,0.8495025038719177,-0.07750207930803299,-0.3942197263240814,0.0603708028793335,0.1284086108207703,2,-0.4011975314930736,0.5299654958095302,-0.6670051718833965,0.3365726150792142,-0.1784579157829285,0.977043628692627,-0.11635422706604,-27.38107299804688,29.06976318359375,-8.566741943359375,-1,2,1677637.617484875,4,2,1676669919.171971,1676669834.051682,104,1.104312,0,0,60.36,0,0,1676669916.622493,1677635.510318,0,-0.269516,98.58161,1676669915.75257,167772201,182416158,0,0,1,1676669915.725558,1,0.39,1
1676669920.638294,83,1676669919.98272,34.21408725073026,-118.3864528309657,245.7686,0,2.025488,351.1045272813337,180,1.53258098778361,7.489848180239176,-9999,1676669920.633352,-28.33160400390625,27.34384155273438,-9.7335205078125,126.8707275390625,115.23193359375,12.27709579467773,1677639.07770325,0.01800537109375,1.05694580078125,-0.07025146484375,1677639.05280525,0.002041845582425594,0.01906130835413933,-0.5915991067886353,1677639.05288425,-165.5072479248047,116.8366546630859,-298.6174621582031,1677639.04160225,-3.008888593015906,-0.9723267061534658,-1.311390628874487,0.08054627478122711,-0.2161458730697632,-0.6213921904563904,0.09157885611057281,-0.004094600677490234,0.0006653666496276855,2,-0.4052703964044708,0.5133233774070524,-0.6803537588365854,0.3307169913138823,-0.2119249552488327,0.9665426015853882,-0.14451003074646,-28.07044982910156,27.83291625976562,-9.267120361328125,-1,2,1677637.617484875,4,2,1676669919.171971,1676669834.051682,104,1.104312,0,0,60.36,0,0,1676669916.622493,1677635.510318,0,-0.269516,98.58161,1676669915.75257,167772201,182416158,0,0,1,1676669915.725558,1,0.39,1
1676669920.701267,84,1676669919.98272,34.21408725073026,-118.3864528309657,245.7686,0,2.025488,351.1045272813337,180,1.53258098778361,7.489848180239176,-9999,1676669920.693146,-28.99546813964844,26.07387542724609,-10.44772338867188,128.7711639404297,117.1323776245117,12.27737045288086,1677639.13745625,0.001800537109375,1.034988403320312,-0.1026611328125,1677639.11255925,0.2513339519500732,0.3198818564414978,-0.2824862897396088,1677639.11293425,-166.6355743408203,115.4667510986328,-298.91455078125,1677639.10135525,-3.071065973695556,-1.018068396246356,-1.284663286829764,0.1012069806456566,0.4067721962928772,-0.3563786745071411,0.2607704401016235,0.0746997594833374,0.04413159191608429,2,-0.4084092787894113,0.5090296521025661,-0.6884570612238511,0.316413424960907,-0.2402168661355972,0.9593424797058105,-0.1481813490390778,-28.95437622070312,26.90351104736328,-10.32913208007812,-1,2,1677637.617484875,4,2,1676669919.171971,1676669834.051682,104,1.104312,0,0,60.36,0,0,1676669916.622493,1677636.510891,0,-0.3170776,98.58218,1676669915.75257,167772201,182416158,0,0,1,1676669915.725558,1,0.39,1
1676669920.757794,85,1676669919.98272,34.21408725073026,-118.3864528309657,245.7686,0,2.025488,351.1045272813337,180,1.53258098778361,7.489848180239176,-9999,1676669920.752877,-29.15797424316406,26.03641510009766,-11.57266235351562,128.056884765625,116.4180908203125,12.27765846252441,1677639.19720925,-0.0773162841796875,1.114990234375,-0.068267822265625,1677639.17231225,0.7215834856033325,-0.2553340196609497,-0.08263229578733444,1677639.17298225,-166.7856292724609,115.2348480224609,-299.6208190917969,1677639.16110925,-3.015159110979598,-0.9589975095968845,-1.258483396946242,0.7087804079055786,-0.2184769958257675,-0.1118105202913284,0.2210870087146759,0.1360514760017395,0.06778377294540405,2,-0.4052193046830161,0.4975552326505264,-0.6987139477614053,0.3162829106802297,-0.2515283226966858,0.9516254663467407,-0.1764722168445587,-29.28070068359375,26.10999298095703,-10.9615478515625,-1,2,1677637.617484875,4,2,1676669919.171971,1676669834.051682,104,1.104312,0,0,60.36,0,0,1676669916.622493,1677636.510891,0,-0.3170776,98.58218,1676669915.75257,167772201,182416158,0,0,1,1676669915.725558,1,0.39,1
1676669920.821958,86,1676669919.98272,34.21408725073026,-118.3864528309657,245.7686,0,2.025488,351.1045272813337,180,1.53258098778361,7.489848180239176,-9999,1676669920.812839,-29.11265563964844,25.16385650634766,-11.9296875,128.1787261962891,116.5399398803711,12.27797889709473,1677639.2569635,0.0198211669921875,1.223312377929688,-0.0420989990234375,1677639.2320655,0.4608573615550995,0.1409203708171844,-0.131858691573143,1677639.2330335,-166.5359344482422,114.5153045654297,-300.4630737304688,1677639.2208625,-2.920031031458695,-0.8827795144732948,-1.23025718188339,0.5750805139541626,-0.01186075620353222,-0.08863458037376404,0.2029138505458832,0.1989502906799316,0.1520302146673203,2,-0.4044349064719713,0.4799874788621442,-0.7066452280632074,0.3266446633135539,-0.2580133080482483,0.9425747394561768,-0.2120888531208038,-29.24783325195312,25.46220397949219,-11.29644775390625,-1,2,1677637.617484875,4,2,1676669919.171971,1676669834.051682,104,1.104312,0,0,60.36,0,0,1676669916.622493,1677636.510891,0,-0.3170776,98.58218,1676669915.75257,167772201,182416158,0,0,1,1676669915.725558,1,0.39,1
1676669920.87744,87,1676669919.98272,34.21408725073026,-118.3864528309657,245.7686,0,2.025488,351.1045272813337,180,1.53258098778361,7.489848180239176,-9999,1676669920.872549,-28.67243957519531,25.27874755859375,-12.91888427734375,129.3833312988281,117.7445373535156,12.2783260345459,1677639.3167165,-0.0506744384765625,1.08404541015625,0.10626220703125,1677639.2918195,-0.02255191467702389,0.5205758213996887,0.02732722833752632,1677639.2930795,-166.3380279541016,114.2420654296875,-301.7376403808594,1677639.2806155,-2.898702831328682,-0.8426269752727733,-1.215435164903736,0.02886521816253662,0.5726046562194824,-0.03187689930200577,0.3094049394130707,0.204339861869812,0.3363606035709381,2,-0.3963888775555309,0.4765520537555969,-0.7153556018408295,0.322552603402244,-0.2596918046474457,0.9375208616256714,-0.2315479964017868,-29.20481872558594,25.36608123779297,-12.4376220703125,-1,2,1677637.617484875,4,2,1676669919.171971,1676669834.051682,104,1.104312,0,0,60.36,0,0,1676669916.622493,1677636.510891,0,-0.3170776,98.58218,1676669915.75257,167772201,182416158,0,0,1,1676669915.725558,1,0.39,1
1676669920.94213,88,1676669919.98272,34.21408725073026,-118.3864528309657,245.7686,0,2.025488,351.1045272813337,180,1.53258098778361,7.489848180239176,-9999,1676669920.932284,-28.19096374511719,26.68756103515625,-10.68496704101562,128.6795806884766,117.0407943725586,12.27877426147461,1677639.3764695,-0.18817138671875,1.05682373046875,-0.0369873046875,1677639.3515725,-1.772164583206177,-0.1586905717849731,0.5092323422431946,1677639.3531315,-165.6142120361328,115.5172424316406,-300.3243103027344,1677639.3403695,-2.939040169669992,-0.8660269635118095,-1.240485033228649,-1.349082946777344,-0.1290310770273209,0.3969544768333435,0.1930363178253174,0.2388424277305603,0.200969398021698,2,-0.3930420263957424,0.4903627182825448,-0.7101911275198147,0.3173183843576047,-0.2470677047967911,0.9459414482116699,-0.210124745965004,-28.6527099609375,25.78935241699219,-12.77117919921875,-1,2,1677637.617484875,4,2,1676669919.171971,1676669834.051682,104,1.104312,0,0,60.36,0,0,1676669916.622493,1677636.510891,0,-0.3170776,98.58218,1676669915.75257,167772201,182416158,0,0,1,1676669915.725558,1,0.39,1
1676669920.996883,89,1676669919.98272,34.21408725073026,-118.3864528309657,245.7686,0,2.025488,351.1045272813337,180,1.53258098778361,7.489848180239176,-9999,1676669920.991936,-27.91500854492188,29.27286529541016,-5.475921630859375,127.2096557617188,115.5708618164062,12.27940559387207,1677639.4362235,-0.4435882568359375,1.034072875976562,-0.3557891845703125,1677639.4113255,-2.912661075592041,-0.3175928890705109,0.6396723985671997,1677639.4131815,-165.3440551757812,118.2120361328125,-295.909423828125,1677639.4001225,2.96656745431346,-1.238425110718822,-1.3418906220128,-2.955898761749268,-0.1631231307983398,0.6454980373382568,-0.06349188089370728,-0.0266803503036499,-0.05947660654783249,2,-0.4085944460156495,0.5440879171904761,-0.6669128579571076,0.3037202701221579,-0.2144927233457565,0.9739152789115906,-0.0740378350019455,-28.00828552246094,27.84024810791016,-8.769073486328125,-1,2,1677637.617484875,4,2,1676669919.171971,1676669834.051682,104,1.104312,0,0,60.36,0,0,1676669916.622493,1677636.510891,0,-0.3170776,98.58218,1676669915.75257,167772201,182416158,0,0,1,1676669915.725558,1,0.39,1
1676669921.062456,90,1676669919.98272,34.21408725073026,-118.3864528309657,245.7686,0,2.025488,351.1045272813337,180,1.53258098778361,7.489848180239176,-9999,1676669921.051778,-26.94305419921875,30.32768249511719,-0.752105712890625,122.1599731445312,110.5211868286133,12.27990436553955,1677639.4959765,-0.4118194580078125,1.20849609375,0.343505859375,1677639.4710795,-1.062125325202942,-1.154294967651367,0.5491997599601746,1677639.4732325,-164.4969177246094,119.7464294433594,-290.3968505859375,1677639.4598755,2.207562525871326,-2.037279953608297,-1.37619768435464,-1.736359000205994,-1.69983172416687,0.6576430797576904,-0.3854243159294128,0.3372949957847595,-0.2925660610198975,2,-0.43726568138762,0.5935345112394615,-0.6052175054552661,0.3003784870243367,-0.1727117002010345,0.9811253547668457,0.08696898072957993,-27.68653869628906,29.75734710693359,-3.46209716796875,-1,2,1677637.617484875,4,2,1676669919.171971,1676669834.051682,104,1.104312,0,0,60.36,0,0,1676669916.622493,1677636.510891,0,-0.3170776,98.58218,1676669915.75257,167772201,182416158,0,0,1,1676669915.725558,1,0.39,1
1676669921.116354,91,1676669919.98272,34.21408725073026,-118.3864528309657,245.7686,0,2.025488,351.1045272813337,180,1.53258098778361,7.489848180239176,-9999,1676669921.111389,-26.22291564941406,31.41893768310547,1.16864013671875,119.3688659667969,107.7300796508789,12.28033065795898,1677639.5557295,-0.0032196044921875,0.72283935546875,-0.166351318359375,1677639.5308325,-1.031294226646423,-0.4676817059516907,0.7389377355575562,1677639.5332865,-163.5061492919922,120.0559692382812,-288.1739196777344,1677639.5196295,1.924937058231642,-2.342012010709987,-1.374117676794735,-0.8945300579071045,-0.2642289996147156,0.6096272468566895,-0.09132246673107147,-0.09745097160339355,-0.1755714565515518,2,-0.4433064896432855,0.609574573898189,-0.5808289723161363,0.3074665959470364,-0.1401228606700897,0.9807209968566895,0.1362036168575287,-26.42109680175781,30.60092163085938,-0.33831787109375,-1,2,1677637.617484875,4,2,1676669919.171971,1676669834.051682,104,1.104312,0,0,60.36,0,0,1676669916.622493,1677636.510891,0,-0.3170776,98.58218,1676669915.75257,167772201,182416158,0,0,1,1676669915.725558,1,0.39,1
1676669921.178232,92,1676669920.982724,34.21409186962003,-118.3864553554018,245.4829,0,1.931994,351.1045259431002,180,1.533678009340118,7.55394792103418,-9999,1676669921.171412,-24.35786437988281,31.88777160644531,1.343536376953125,119.3685607910156,107.7297668457031,12.28074359893799,1677639.6154835,0.0489501953125,0.796875,-0.1369171142578125,1677639.5905855,-0.4817274808883667,0.9518004655838013,0.7971591949462891,1677639.5933385,-162.0412902832031,121.1053924560547,-287.4416809082031,1677639.5793825,1.584628715695355,-2.684524179104867,-1.364603558635576,-0.4116091132164001,0.7182233333587646,0.8846797347068787,0.1921296119689941,-0.2548794150352478,-0.2977786064147949,2,-0.4379020680596433,0.63253558900176,-0.556468975411804,0.3138197299098746,-0.09035353362560272,0.9788174629211426,0.1837189793586731,-25.88751220703125,31.51787567138672,1.125701904296875,-1,2,1677637.617484875,4,2,1676669919.171971,1676669834.051682,104,1.104312,0,0,60.36,0,0,1676669916.622493,1677636.510891,0,-0.3170776,98.58218,1676669915.75257,167772201,182416158,0,0,1,1676669915.725558,1,0.39,1
1676669921.235816,93,1676669920.982724,34.21409186962003,-118.3864553554018,245.4829,0,1.931994,351.1045259431002,180,1.533678009340118,7.55394792103418,-9999,1676669921.230982,-24.01039123535156,32.37581634521484,2.300048828125,122.771484375,111.132698059082,12.28110122680664,1677639.6752365,-0.3729248046875,0.5295257568359375,0.092864990234375,1677639.6503395,-0.9707416296005249,0.7715814113616943,-0.03066017478704453,1677639.6533885,-161.4324340820312,121.5602264404297,-286.5606384277344,1677639.6391355,1.383355557419335,-2.831529964355618,-1.332989951009443,-1.059022068977356,0.79790198802948,0.03309961780905724,-0.0638500303030014,-0.2518865466117859,-0.28990438580513,2,-0.4217949813032464,0.6589822785761686,-0.5478505857133513,0.2961265829690846,-0.07187691330909729,0.9718570709228516,0.2243372946977615,-24.32414245605469,32.196533203125,1.645599365234375,-1,2,1677637.617484875,4,2,1676669919.171971,1676669834.051682,104,1.104312,0,0,60.36,0,0,1676669916.622493,1677636.510891,0,-0.3170776,98.58218,1676669915.75257,167772201,182416158,0,0,1,1676669915.725558,1,0.39,1
1676669921.295583,94,1676669920.982724,34.21409186962003,-118.3864553554018,245.4829,0,1.931994,351.1045259431002,180,1.533678009340118,7.55394792103418,-9999,1676669921.29094,-24.24453735351562,31.93163299560547,0.1766357421875,126.9371795654297,115.2983856201172,12.28103733062744,1677639.7349895,-0.1177215576171875,0.597564697265625,0.2754364013671875,1677639.7100925,0.4969764947891235,0.8995753526687622,-0.1010661646723747,1677639.7134395,-161.7037353515625,121.1004638671875,-288.421875,1677639.6988895,1.349863708168128,-2.815085563459466,-1.299054242977665,0.1671654134988785,0.9106778502464294,-0.07319270819425583,-0.2704784870147705,-0.5521261096000671,-0.1448241174221039,2,-0.4142435216776773,0.6749200677617118,-0.5468022092414306,0.2718318882693478,-0.08608895540237427,0.9633047580718994,0.2542295753955841,-24.22630310058594,32.32927703857422,1.179412841796875,-1,2,1677637.617484875,4,2,1676669919.171971,1676669834.051682,104,1.104312,0,0,60.36,0,0,1676669916.622493,1677636.510891,0,-0.3170776,98.58218,1676669915.75257,167772201,182416158,0,0,1,1676669915.725558,1,0.39,1
1676669921.355274,95,1676669920.982724,34.21409186962003,-118.3864553554018,245.4829,0,1.931994,351.1045259431002,180,1.533678009340118,7.55394792103418,-9999,1676669921.350509,-23.42068481445312,31.85830688476562,-2.90069580078125,130.9873962402344,119.3486099243164,12.28137588500977,1677639.7947435,0.2520599365234375,1.89984130859375,0.8857574462890625,1677639.7698455,0.6401187181472778,1.438183188438416,0.1900777965784073,1677639.7734905,-160.9696502685547,121.1377868652344,-290.8485717773438,1677639.7586425,1.451979362483034,-2.653745525472068,-1.337899031734699,0.8930817842483521,1.43896210193634,-0.03586731851100922,0.1323199272155762,0.02841722965240479,0.3141623735427856,2,-0.3933672118700148,0.6687293681782455,-0.5758325732526961,0.2578373072920657,-0.108180545270443,0.9730017781257629,0.2038734555244446,-24.3170166015625,31.95331573486328,-0.7281494140625,-1,2,1677637.617484875,4,2,1676669919.171971,1676669834.051682,104,1.104312,0,0,60.36,0,0,1676669916.622493,1677636.510891,0,-0.3170776,98.58218,1676669915.75257,167772201,182416158,0,0,1,1676669915.725558,1,0.39,1
1676669921.414929,96,1676669920.982724,34.21409186962003,-118.3864553554018,245.4829,0,1.931994,351.1045259431002,180,1.533678009340118,7.55394792103418,-9999,1676669921.410176,-22.10643005371094,32.92002868652344,-3.427825927734375,130.1423645019531,118.5035781860352,12.28153705596924,1677639.8544965,-0.1104736328125,0.8161468505859375,0.19091796875,1677639.8295995,0.1211663708090782,0.4634084105491638,0.6476986408233643,1677639.8335405,-159.7507781982422,122.0032501220703,-291.9566955566406,1677639.8183955,1.347838101454196,-2.713535423073203,-1.37449549614356,0.2689613699913025,0.1372998505830765,0.819473922252655,0.4076075553894043,0.8561801910400391,0.4550327062606812,2,-0.3660936717892269,0.674312554662974,-0.586866263750731,0.2585843700766882,-0.08096267282962799,0.9807947874069214,0.1774439960718155,-22.71369934082031,32.53916168212891,-3.2760009765625,-1,2,1677637.617484875,4,2,1676669919.171971,1676669834.051682,104,1.104312,0,0,60.36,0,0,1676669916.622493,1677636.510891,0,-0.3170776,98.58218,1676669915.75257,167772201,182416158,0,0,1,1676669915.725558,1,0.39,1
1676669921.476943,97,1676669920.982724,34.21409186962003,-118.3864553554018,245.4829,0,1.931994,351.1045259431002,180,1.533678009340118,7.55394792103418,-9999,1676669921.470167,-21.28892517089844,33.19846343994141,-4.789825439453125,131.4377899169922,119.7990036010742,12.28189563751221,1677639.9142495,-0.4148712158203125,1.445480346679688,0.455047607421875,1677639.8893525,0.5806657671928406,-0.03086656890809536,0.3703761994838715,1677639.8935935,-158.7334747314453,122.4838104248047,-293.2158813476562,1677639.8781495,1.159114393311152,-2.844616607428812,-1.38703340324284,0.2374795079231262,0.760606586933136,0.6209264993667603,-0.1541233658790588,-0.4472285509109497,-0.1741216033697128,2,-0.3373838653640649,0.6881410221661446,-0.5912801053078489,0.2510417356287351,-0.05347250029444695,0.983163058757782,0.1747318804264069,-21.7294921875,33.07567596435547,-4.048065185546875,-1,2,1677637.617484875,4,2,1676669919.171971,1676669834.051682,104,1.104312,0,0,60.36,0,0,1676669916.622493,1677636.510891,0,-0.3170776,98.58218,1676669915.75257,167772201,182416158,0,0,1,1676669915.725558,1,0.39,1
1676669921.534604,98,1676669920.982724,34.21409186962003,-118.3864553554018,245.4829,0,1.931994,351.1045259431002,180,1.533678009340118,7.55394792103418,-9999,1676669921.530025,-21.60478210449219,32.85964965820312,-6.56341552734375,135.0403594970703,123.4015655517578,12.28228759765625,1677639.9740035,-0.1121978759765625,0.727569580078125,-0.4132843017578125,1677639.9491055,0.3974956870079041,0.7521997094154358,0.2546067237854004,1677639.9536455,-159.0579833984375,121.931640625,-294.6824340820312,1677639.9379025,1.222337848720565,-2.742006997826924,-1.40610481009234,0.09631787985563278,1.215599536895752,-0.05689956992864609,-0.2031558156013489,0.4208185076713562,-0.1745152622461319,2,-0.3239576632808358,0.6859791140490759,-0.6058560666494188,0.2396297100310159,-0.06378147751092911,0.9864689707756042,0.1510318219661713,-21.81272888183594,32.95505523681641,-5.83209228515625,-1,2,1677637.617484875,4,2,1676669919.171971,1676669834.051682,104,1.104312,0,0,60.36,0,0,1676669916.622493,1677636.510891,0,-0.3170776,98.58218,1676669915.75257,167772201,182416158,0,0,1,1676669915.725558,1,0.39,1
1676669921.594353,99,1676669920.982724,34.21409186962003,-118.3864553554018,245.4829,0,1.931994,351.1045259431002,180,1.533678009340118,7.55394792103418,-9999,1676669921.589687,-21.48992919921875,32.07707977294922,-8.357452392578125,133.5169525146484,121.8781585693359,12.28266143798828,1677640.0337565,-0.5941162109375,0.826690673828125,0.1258087158203125,1677640.0088595,0.9345378279685974,-0.8772383332252502,-0.3044403195381165,1677640.0136955,-158.7942047119141,121.0701599121094,-296.8076782226562,1677639.9976555,1.310034337053264,-2.636848301504878,-1.454047928089645,1.119048476219177,-0.5714350342750549,-0.128399521112442,-0.219748318195343,-0.3624554872512817,-0.4461798667907715,2,-0.3091137318574673,0.6748533818195631,-0.6240457754797355,0.2441073034993483,-0.05632895976305008,0.9931926727294922,0.101956769824028,-21.27578735351562,32.67120361328125,-7.80517578125,-1,2,1677637.617484875,4,2,1676669919.171971,1676669834.051682,104,1.104312,0,0,60.36,0,0,1676669916.622493,1677636.510891,0,-0.3170776,98.58218,1676669915.75257,167772201,182416158,0,0,1,1676669915.725558,1,0.39,1
1676669921.65408,100,1676669920.982724,34.21409186962003,-118.3864553554018,245.4829,0,1.931994,351.1045259431002,180,1.533678009340118,7.55394792103418,-9999,1676669921.649392,-24.356201171875,30.74436187744141,-7.730224609375,129.5796508789062,117.9408645629883,12.2830286026001,1677640.0935095,-0.2831573486328125,0.967254638671875,-0.2716217041015625,1677640.0686125,0.7809181809425354,-2.055617809295654,-0.7111468315124512,1677640.0737465,-161.4109191894531,119.9106597900391,-296.8292236328125,1677640.0574095,1.849147562323174,-2.167419257782473,-1.465246132489062,0.7640945315361023,-1.911432504653931,-0.7765477895736694,-0.5460415482521057,-0.1314282417297363,-0.3064312934875488,2,-0.3359881427722607,0.6455296487891091,-0.6337081418797768,0.2623306256304336,-0.08715245127677917,0.9944347739219666,0.05919311940670013,-22.97309875488281,31.42519378662109,-8.3775634765625,-1,2,1677637.617484875,4,2,1676669919.171971,1676669834.051682,104,1.104312,0,0,60.36,0,0,1676669916.622493,1677637.511466,0,-0.396347,98.5831,1676669915.75257,167772201,182416158,0,0,1,1676669915.725558,1,0.39,1
1676669921.713732,101,1676669920.982724,34.21409186962003,-118.3864553554018,245.4829,0,1.931994,351.1045259431002,180,1.533678009340118,7.55394792103418,-9999,1676669921.709097,-25.97239685058594,29.09305572509766,-7.786041259765625,132.9328918457031,121.2941055297852,12.28330516815186,1677640.1532635,0.0980224609375,1.190658569335938,-0.1105194091796875,1677640.1283655,0.4421867430210114,0.7363525629043579,-0.8793874979019165,1677640.1337965,-163.3971252441406,118.5293121337891,-295.943115234375,1677640.1171625,2.322274692326234,-1.78888955428187,-1.440556238364325,0.5135257244110107,-0.06657165288925171,-0.8361177444458008,0.05436147749423981,0.08096367120742798,-0.2009516954421997,2,-0.3732143699049869,0.6121773148969725,-0.6364305844530258,0.2844397563198452,-0.1267949491739273,0.99153071641922,0.02810006216168404,-25.41477966308594,29.96744537353516,-7.1627197265625,-1,2,1677637.617484875,4,2,1676669919.171971,1676669834.051682,104,1.104312,0,0,60.36,0,0,1676669916.622493,1677637.511466,0,-0.396347,98.5831,1676669915.75257,167772201,182416158,0,0,1,1676669915.725558,1,0.39,1
1676669921.773555,102,1676669920.982724,34.21409186962003,-118.3864553554018,245.4829,0,1.931994,351.1045259431002,180,1.533678009340118,7.55394792103418,-9999,1676669921.768927,-26.18955993652344,27.13874816894531,-11.50885009765625,136.7032318115234,125.0644378662109,12.28371906280518,1677640.213015542,0.0068359375,0.8436737060546875,-0.194183349609375,1677640.1881195,2.114290237426758,0.5036311745643616,-0.471163272857666,1677640.1938455,-163.6135559082031,116.1596832275391,-300.5186767578125,1677640.1769155,2.59846617313617,-1.439192565992129,-1.386752739833392,1.819320321083069,1.138343214988708,-0.8693111538887024,0.3768430352210999,0.07845741510391235,0.3549779057502747,2,-0.3593822264556029,0.5990300411271394,-0.670208897510849,0.2506540248321559,-0.1814237534999847,0.9831117391586304,-0.02401485107839108,-26.17344665527344,28.17485809326172,-9.74395751953125,-1,2,1677637.617484875,4,2,1676669919.171971,1676669834.051682,104,1.104312,0,0,60.36,0,0,1676669916.622493,1677637.511466,0,-0.396347,98.5831,1676669915.75257,167772201,182416158,0,0,1,1676669915.725558,1,0.39,1
1676669921.833416,103,1676669920.982724,34.21409186962003,-118.3864553554018,245.4829,0,1.931994,351.1045259431002,180,1.533678009340118,7.55394792103418,-9999,1676669921.828729,-26.6533203125,26.65626525878906,-11.8409423828125,132.8032379150391,121.1644439697266,12.28394985198975,1677640.272768542,-0.0775299072265625,1.009170532226562,0.0496826171875,1677640.247871542,0.6176749467849731,-1.158572554588318,0.1285678297281265,1677640.253891542,-163.8601226806641,115.9024200439453,-300.4490356445312,1677640.236668542,3.052380844835832,-1.006255755596501,-1.345060443815617,0.8836779594421387,-1.083893299102783,0.133550301194191,0.2248906791210175,-0.138112485408783,-0.05781500041484833,2,-0.3524635173912594,0.5620441799673302,-0.6980228790064541,0.2695176384767352,-0.1890935599803925,0.9746296405792236,-0.1197516173124313,-26.21463012695312,26.71891021728516,-11.82107543945312,-1,2,1677637.617484875,4,2,1676669919.171971,1676669834.051682,104,1.104312,0,0,60.36,0,0,1676669916.622493,1677637.511466,0,-0.396347,98.5831,1676669915.75257,167772201,182416158,0,0,1,1676669915.725558,1,0.39,1
1676669921.893376,104,1676669920.982724,34.21409186962003,-118.3864553554018,245.4829,0,1.931994,351.1045259431002,180,1.533678009340118,7.55394792103418,-9999,1676669921.888382,-27.31187438964844,25.99708557128906,-11.89138793945312,130.85107421875,119.2122802734375,12.28410816192627,1677640.332522542,-0.110870361328125,1.052764892578125,0.09661865234375,1677640.307624542,0.7737252712249756,-0.4796278476715088,-0.06212275847792625,1677640.313936542,-164.6920623779297,115.0209350585938,-300.3652038574219,1677640.296421542,-3.101542204054136,-0.9352746447246262,-1.332781820522577,0.6160880327224731,-0.586479127407074,-0.04788263887166977,0.08784341812133789,0.1641782522201538,0.1601571440696716,2,-0.3653158105857719,0.5445797195263562,-0.6959429554397256,0.2926442982538382,-0.1897416263818741,0.9718080163002014,-0.1399545818567276,-26.92694091796875,26.17295074462891,-11.79815673828125,-1,2,1677637.617484875,4,2,1676669919.171971,1676669834.051682,104,1.104312,0,0,60.36,0,0,1676669916.622493,1677637.511466,0,-0.396347,98.5831,1676669915.75257,167772201,182416158,0,0,1,1676669915.725558,1,0.39,1
1676669921.952925,105,1676669920.982724,34.21409186962003,-118.3864553554018,245.4829,0,1.931994,351.1045259431002,180,1.533678009340118,7.55394792103418,-9999,1676669921.947934,-27.45298767089844,25.35349273681641,-12.2091064453125,129.6110687255859,117.9722747802734,12.28431797027588,1677640.392275542,-0.1693267822265625,0.9428558349609375,-0.142578125,1677640.367378542,0.4819349348545074,-0.2894784212112427,0.04457412660121918,1677640.373983542,-164.8288879394531,114.6256561279297,-301.4644165039062,1677640.356174542,-2.951736518865646,-0.812215873637689,-1.298049200231423,0.7214577794075012,-0.2818830013275146,0.006427548825740814,0.06871768832206726,-0.01979726552963257,0.1845857501029968,2,-0.3659281990015474,0.5229197196679414,-0.7059500721529313,0.3070603585367062,-0.1955182403326035,0.9630345106124878,-0.1853030472993851,-27.54660034179688,25.70864868164062,-12.51141357421875,-1,2,1677637.617484875,4,2,1676669919.171971,1676669834.051682,104,1.104312,0,0,60.36,0,0,1676669916.622493,1677637.511466,0,-0.396347,98.5831,1676669915.75257,167772201,182416158,0,0,1,1676669915.725558,1,0.39,1
1676669922.012614,106,1676669920.982724,34.21409186962003,-118.3864553554018,245.4829,0,1.931994,351.1045259431002,180,1.533678009340118,7.55394792103418,-9999,1676669922.007953,-28.598388671875,25.03295135498047,-11.55804443359375,128.7498779296875,117.111083984375,12.28450870513916,1677640.452028542,-0.1281890869140625,1.11419677734375,0.0404052734375,1677640.427131542,-0.280864953994751,-0.6365095973014832,-0.2765226662158966,1677640.434030542,-165.8410186767578,114.5901184082031,-300.4017028808594,1677640.415928542,-2.93016654661636,-0.8180844852037846,-1.290996645462668,-0.2726494371891022,-0.6503174901008606,-0.1892439126968384,0.05648909509181976,0.1247352361679077,0.01261284947395325,2,-0.3741751738645557,0.5153614843380167,-0.7035623672178254,0.3152706311312519,-0.201554462313652,0.9611107707023621,-0.188790962100029,-28.21562194824219,25.31204223632812,-12.21835327148438,-1,2,1677637.617484875,4,2,1676669919.171971,1676669834.051682,104,1.104312,0,0,60.36,0,0,1676669916.622493,1677637.511466,0,-0.396347,98.5831,1676669915.75257,167772201,182416158,0,0,1,1676669915.725558,1,0.39,1
1676669922.072247,107,1676669920.982724,34.21409186962003,-118.3864553554018,245.4829,0,1.931994,351.1045259431002,180,1.533678009340118,7.55394792103418,-9999,1676669922.06743,-29.01092529296875,24.05294799804688,-11.29345703125,128.0866546630859,116.447868347168,12.28478240966797,1677640.511781542,0.015045166015625,1.249649047851562,-0.1175994873046875,1677640.486884542,0.765257716178894,-0.1430559605360031,-0.07565907388925552,1677640.494081542,-166.2507171630859,113.2623901367188,-300.2957153320312,1677640.475681542,-2.945334476344138,-0.8606557067681972,-1.276587197402186,0.7144456505775452,-0.1856013983488083,-0.101290188729763,0.09908153116703033,0.11695796251297,0.2285259962081909,2,-0.3864742219329991,0.5060749896119456,-0.702029690394496,0.3188730711329764,-0.219885379076004,0.957031786441803,-0.1890515685081482,-28.974609375,24.8121337890625,-11.22940063476562,-1,2,1677637.617484875,4,2,1676669919.171971,1676669834.051682,104,1.104312,0,0,60.36,0,0,1676669916.622493,1677637.511466,0,-0.396347,98.5831,1676669915.75257,167772201,182416158,0,0,1,1676669915.725558,1,0.39,1
