loggingTime(txt),locationTimestamp_since1970(s),locationLatitude(WGS84),locationLongitude(WGS84),locationAltitude(m),locationSpeed(m/s),locationSpeedAccuracy(m/s),locationCourse(°),locationCourseAccuracy(°),locationVerticalAccuracy(m),locationHorizontalAccuracy(m),locationFloor(Z),accelerometerTimestamp_sinceReboot(s),accelerometerAccelerationX(G),accelerometerAccelerationY(G),accelerometerAccelerationZ(G),motionTimestamp_sinceReboot(s),motionYaw(rad),motionRoll(rad),motionPitch(rad),motionRotationRateX(rad/s),motionRotationRateY(rad/s),motionRotationRateZ(rad/s),motionUserAccelerationX(G),motionUserAccelerationY(G),motionUserAccelerationZ(G),motionAttitudeReferenceFrame(txt),motionQuaternionX(R),motionQuaternionY(R),motionQuaternionZ(R),motionQuaternionW(R),motionGravityX(G),motionGravityY(G),motionGravityZ(G),motionMagneticFieldX(µT),motionMagneticFieldY(µT),motionMagneticFieldZ(µT),motionHeading(°),motionMagneticFieldCalibrationAccuracy(Z),activityTimestamp_sinceReboot(s),activity(txt),activityActivityConfidence(Z),activityActivityStartDate(txt),pedometerStartDate(txt),pedometerNumberofSteps(N),pedometerAverageActivePace(s/m),pedometerCurrentPace(s/m),pedometerCurrentCadence(steps/s),pedometerDistance(m),pedometerFloorAscended(N),pedometerFloorDescended(N),pedometerEndDate(txt),altimeterTimestamp_sinceReboot(s),altimeterReset(bool),altimeterRelativeAltitude(m),altimeterPressure(kPa),batteryState(N),batteryLevel(R)
2023-02-25T18:28:04.612-08:00,1677378484.001581,34.25690450674983,-118.5948908997849,299.3122,0,1.445086,11.59999856926072,180,1.603309728208074,6.39460851014268,-9999,41368.619832375,0.03289794921875,-0.112091064453125,-0.9983978271484375,41368.583855375,-0.7979616528955983,0.04242317000983516,0.05182541403700069,-0.3012751936912537,0.08048263192176819,-0.2361100763082504,-0.06882749497890472,-0.009248152375221252,0.03347969055175781,XArbitraryZVertical,0.03210629233338785,0.009474382701158253,-0.3877552507630092,0.9211543394720489,0.04235350340604782,-0.05180221796035767,-0.9977588653564453,0,0,0,-1,-1,41358.88355266667,walking,2,2023-02-25T18:27:54.828-08:00,2023-02-23T12:03:25.234-08:00,5104,1.557456,0.7858028,1.557423,4031.516,6,4,2023-02-25T18:27:57.369-08:00,699071282.5146674,0,84.62,97.67506,1,0.7
2023-02-25T18:28:04.628-08:00,1677378484.001581,34.25690450674983,-118.5948908997849,299.3122,0,1.445086,11.59999856926072,180,1.603309728208074,6.39460851014268,-9999,41368.653346375,0.0567474365234375,-0.10272216796875,-1.01226806640625,41368.643419375,-0.8057677010627665,0.04796812313650712,0.03872885406142878,-0.2200862765312195,0.0863458514213562,-0.03529788553714752,-9.272247552871704e-05,-0.07572169601917267,-0.004279613494873047,XArbitraryZVertical,0.02720859849255541,0.01446789597063032,-0.3914594930102423,0.9196791874548558,0.04791377484798431,-0.03871917352080345,-0.998100757598877,0,0,0,-1,-1,41358.88355266667,walking,2,2023-02-25T18:27:54.828-08:00,2023-02-23T12:03:25.234-08:00,5104,1.557456,0.7858028,1.557423,4031.516,6,4,2023-02-25T18:27:57.369-08:00,699071282.5146674,0,84.62,97.67506,1,0.7
2023-02-25T18:28:04.636-08:00,1677378484.001581,34.25690450674983,-118.5948908997849,299.3122,0,1.445086,11.59999856926072,180,1.603309728208074,6.39460851014268,-9999,41368.686861375,0.081695556640625,-0.135711669921875,-1.046722412109375,41368.643419375,-0.8057677010627665,0.04796812313650712,0.03872885406142878,-0.2200862765312195,0.0863458514213562,-0.03529788553714752,-9.272247552871704e-05,-0.07572169601917267,-0.004279613494873047,XArbitraryZVertical,0.02720859849255541,0.01446789597063032,-0.3914594930102423,0.9196791874548558,0.04791377484798431,-0.03871917352080345,-0.998100757598877,0,0,0,-1,-1,41358.88355266667,walking,2,2023-02-25T18:27:54.828-08:00,2023-02-23T12:03:25.234-08:00,5104,1.557456,0.7858028,1.557423,4031.516,6,4,2023-02-25T18:27:57.369-08:00,699071282.5146674,0,84.62,97.67506,1,0.7
2023-02-25T18:28:04.666-08:00,1677378484.001581,34.25690450674983,-118.5948908997849,299.3122,0,1.445086,11.59999856926072,180,1.603309728208074,6.39460851014268,-9999,41368.720336375,0.047088623046875,-0.1206512451171875,-1.07073974609375,41368.70298337501,-0.796457143895292,0.05564969719695891,0.03191404140929964,-0.02266445197165012,0.170268714427948,0.2776849269866943,0.008265383541584015,-0.09295399487018585,-0.06090962886810303,XArbitraryZVertical,0.02548937967342335,0.01945570892561494,-0.3871774826241858,0.9214474745040893,0.05559265613555908,-0.03190862387418747,-0.9979435205459595,0,0,0,-1,-1,41358.88355266667,walking,2,2023-02-25T18:27:54.828-08:00,2023-02-23T12:03:25.234-08:00,5104,1.557456,0.7858028,1.557423,4031.516,6,4,2023-02-25T18:27:57.369-08:00,699071282.5146674,0,84.62,97.67506,1,0.7
2023-02-25T18:28:04.701-08:00,1677378484.001581,34.25690450674983,-118.5948908997849,299.3122,0,1.445086,11.59999856926072,180,1.603309728208074,6.39460851014268,-9999,41368.753851375,0.0433807373046875,-0.1210784912109375,-1.0965576171875,41368.70298337501,-0.796457143895292,0.05564969719695891,0.03191404140929964,-0.02266445197165012,0.170268714427948,0.2776849269866943,0.008265383541584015,-0.09295399487018585,-0.06090962886810303,XArbitraryZVertical,0.02548937967342335,0.01945570892561494,-0.3871774826241858,0.9214474745040893,0.05559265613555908,-0.03190862387418747,-0.9979435205459595,0,0,0,-1,-1,41358.88355266667,walking,2,2023-02-25T18:27:54.828-08:00,2023-02-23T12:03:25.234-08:00,5104,1.557456,0.7858028,1.557423,4031.516,6,4,2023-02-25T18:27:57.369-08:00,699071282.5146674,0,84.62,97.67506,1,0.7
2023-02-25T18:28:04.735-08:00,1677378484.001581,34.25690450674983,-118.5948908997849,299.3122,0,1.445086,11.59999856926072,180,1.603309728208074,6.39460851014268,-9999,41368.787366375,0.035400390625,-0.07598876953125,-1.108123779296875,41368.762548375,-0.7835496037114463,0.0644059062690174,0.03480930597268667,0.04295720160007477,0.151086762547493,0.114273227751255,-0.02661792188882828,-0.05957328528165817,-0.09799951314926147,XArbitraryZVertical,0.02836884424814172,0.02311154953814632,-0.3810556704533704,0.9238277435726996,0.06432239711284637,-0.03480227664113045,-0.997322142124176,0,0,0,-1,-1,41358.88355266667,walking,2,2023-02-25T18:27:54.828-08:00,2023-02-23T12:03:25.234-08:00,5104,1.557456,0.7858028,1.557423,4031.516,6,4,2023-02-25T18:27:57.369-08:00,699071282.5146674,0,84.62,97.67506,1,0.7
2023-02-25T18:28:04.770-08:00,1677378484.001581,34.25690450674983,-118.5948908997849,299.3122,0,1.445086,11.59999856926072,180,1.603309728208074,6.39460851014268,-9999,41368.820881375,0.0564727783203125,-0.079925537109375,-1.037826538085938,41368.762548375,-0.7835496037114463,0.0644059062690174,0.03480930597268667,0.04295720160007477,0.151086762547493,0.114273227751255,-0.02661792188882828,-0.05957328528165817,-0.09799951314926147,XArbitraryZVertical,0.02836884424814172,0.02311154953814632,-0.3810556704533704,0.9238277435726996,0.06432239711284637,-0.03480227664113045,-0.997322142124176,0,0,0,-1,-1,41358.88355266667,walking,2,2023-02-25T18:27:54.828-08:00,2023-02-23T12:03:25.234-08:00,5104,1.557456,0.7858028,1.557423,4031.516,6,4,2023-02-25T18:27:57.369-08:00,699071282.5146674,0,84.62,97.67506,1,0.7
2023-02-25T18:28:04.800-08:00,1677378484.001581,34.25690450674983,-118.5948908997849,299.3122,0,1.445086,11.59999856926072,180,1.603309728208074,6.39460851014268,-9999,41368.854356375,0.0812835693359375,-0.0968170166015625,-0.9939727783203125,41368.822112375,-0.7822768745935147,0.07504238302710596,0.04652060625472403,0.2595740258693695,0.1568437218666077,-0.07320225238800049,-0.0184180736541748,-0.03342166170477867,-0.04171973466873169,XArbitraryZVertical,0.03578390678603609,0.02580916452834577,-0.3800631512556393,0.9239076876684852,0.0748908594250679,-0.04650382697582245,-0.9961068034172058,0,0,0,-1,-1,41358.88355266667,walking,2,2023-02-25T18:27:54.828-08:00,2023-02-23T12:03:25.234-08:00,5104,1.557456,0.7858028,1.557423,4031.516,6,4,2023-02-25T18:27:57.369-08:00,699071282.5146674,0,84.62,97.67506,1,0.7
2023-02-25T18:28:04.834-08:00,1677378484.001581,34.25690450674983,-118.5948908997849,299.3122,0,1.445086,11.59999856926072,180,1.603309728208074,6.39460851014268,-9999,41368.887870625,0.072509765625,-0.09747314453125,-0.9810028076171875,41368.881675625,-0.7828021321916555,0.08600090597852759,0.0671215356119956,0.2165682762861252,0.2398853451013565,0.1349074095487595,-0.005638644099235535,-0.04694247990846634,0.0142022967338562,XArbitraryZVertical,0.04737794609620249,0.0269252835629578,-0.3795833093978527,0.923551253368754,0.08570151031017303,-0.06707114726305008,-0.9940606951713562,0,0,0,-1,-1,41358.88355266667,walking,2,2023-02-25T18:27:54.828-08:00,2023-02-23T12:03:25.234-08:00,5104,1.557456,0.7858028,1.557423,4031.516,6,4,2023-02-25T18:27:57.369-08:00,699071282.5146674,0,84.62,97.67506,1,0.7
2023-02-25T18:28:04.870-08:00,1677378484.001581,34.25690450674983,-118.5948908997849,299.3122,0,1.445086,11.59999856926072,180,1.603309728208074,6.39460851014268,-9999,41368.921385625,0.0569000244140625,-0.0468597412109375,-1.008209228515625,41368.881675625,-0.7828021321916555,0.08600090597852759,0.0671215356119956,0.2165682762861252,0.2398853451013565,0.1349074095487595,-0.005638644099235535,-0.04694247990846634,0.0142022967338562,XArbitraryZVertical,0.04737794609620249,0.0269252835629578,-0.3795833093978527,0.923551253368754,0.08570151031017303,-0.06707114726305008,-0.9940606951713562,0,0,0,-1,-1,41358.88355266667,walking,2,2023-02-25T18:27:54.828-08:00,2023-02-23T12:03:25.234-08:00,5104,1.557456,0.7858028,1.557423,4031.516,6,4,2023-02-25T18:27:57.369-08:00,699071282.5146674,0,84.62,97.67506,1,0.7
2023-02-25T18:28:04.904-08:00,1677378484.001581,34.25690450674983,-118.5948908997849,299.3122,0,1.445086,11.59999856926072,180,1.603309728208074,6.39460851014268,-9999,41368.954900625,0.0660247802734375,0.082000732421875,-0.9925689697265625,41368.941240625,-0.778379205388554,0.09190839205737363,0.05168630487973749,-0.5057941079139709,-0.006335352547466755,-0.08710089325904846,-0.02071837335824966,0.06768506765365601,-0.02160263061523438,XArbitraryZVertical,0.04130746877027385,0.03269399086373651,-0.3778133394838431,0.9243818232063851,0.09165648370981216,-0.05166329443454742,-0.9944496154785156,0,0,0,-1,-1,41358.88355266667,walking,2,2023-02-25T18:27:54.828-08:00,2023-02-23T12:03:25.234-08:00,5104,1.557456,0.7858028,1.557423,4031.516,6,4,2023-02-25T18:27:57.369-08:00,699071282.5146674,0,84.62,97.67506,1,0.7
2023-02-25T18:28:04.934-08:00,1677378484.001581,34.25690450674983,-118.5948908997849,299.3122,0,1.445086,11.59999856926072,180,1.603309728208074,6.39460851014268,-9999,41368.98837562501,0.1190338134765625,0.011444091796875,-0.88916015625,41368.941240625,-0.778379205388554,0.09190839205737363,0.05168630487973749,-0.5057941079139709,-0.006335352547466755,-0.08710089325904846,-0.02071837335824966,0.06768506765365601,-0.02160263061523438,XArbitraryZVertical,0.04130746877027385,0.03269399086373651,-0.3778133394838431,0.9243818232063851,0.09165648370981216,-0.05166329443454742,-0.9944496154785156,0,0,0,-1,-1,41358.88355266667,walking,2,2023-02-25T18:27:54.828-08:00,2023-02-23T12:03:25.234-08:00,5104,1.557456,0.7858028,1.557423,4031.516,6,4,2023-02-25T18:27:57.369-08:00,699071282.5146674,0,84.62,97.67506,1,0.7
2023-02-25T18:28:04.969-08:00,1677378484.001581,34.25690450674983,-118.5948908997849,299.3122,0,1.445086,11.59999856926072,180,1.603309728208074,6.39460851014268,-9999,41369.021890625,0.0305023193359375,-0.2673187255859375,-0.7118682861328125,41369.000804625,-0.7912976132915681,0.07971072334347408,0.02730771793103071,-0.0470091737806797,-0.3058829307556152,-0.4878107607364655,0.05182729661464691,-0.03386811167001724,0.1429527997970581,XArbitraryZVertical,0.0279436924554174,0.03150529099676252,-0.3845630047592247,0.9221376691089092,0.07959665358066559,-0.02730432339012623,-0.9964531064033508,0,0,0,-1,-1,41358.88355266667,walking,2,2023-02-25T18:27:54.828-08:00,2023-02-23T12:03:25.234-08:00,5104,1.557456,0.7858028,1.557423,4031.516,6,4,2023-02-25T18:27:57.369-08:00,699071282.5146674,0,84.62,97.67506,1,0.7
2023-02-25T18:28:05.003-08:00,1677378484.001581,34.25690450674983,-118.5948908997849,299.3122,0,1.445086,11.59999856926072,180,1.603309728208074,6.39460851014268,-9999,41369.055405625,0.147491455078125,-0.2354888916015625,-0.696685791015625,41369.000804625,-0.7912976132915681,0.07971072334347408,0.02730771793103071,-0.0470091737806797,-0.3058829307556152,-0.4878107607364655,0.05182729661464691,-0.03386811167001724,0.1429527997970581,XArbitraryZVertical,0.0279436924554174,0.03150529099676252,-0.3845630047592247,0.9221376691089092,0.07959665358066559,-0.02730432339012623,-0.9964531064033508,0,0,0,-1,-1,41358.88355266667,walking,2,2023-02-25T18:27:54.828-08:00,2023-02-23T12:03:25.234-08:00,5104,1.557456,0.7858028,1.557423,4031.516,6,4,2023-02-25T18:27:57.369-08:00,699071282.5146674,0,84.62,97.67506,1,0.7
2023-02-25T18:28:05.044-08:00,1677378484.001581,34.25690450674983,-118.5948908997849,299.3122,0,1.445086,11.59999856926072,180,1.603309728208074,6.39460851014268,-9999,41369.088920625,0.10113525390625,-0.1754608154296875,-0.628326416015625,41369.060368625,-0.7917672984238089,0.08064861932559161,-0.007691659768476345,-1.72265887260437,-0.08383307605981827,-0.2938459515571594,0.05007166415452957,-0.2210094034671783,0.2974709272384644,XArbitraryZVertical,0.01200019577536537,0.0386769516011245,-0.3854503806590994,0.9218394400425753,0.08055883646011353,0.007691584061831236,-0.9967201948165894,0,0,0,-1,-1,41358.88355266667,walking,2,2023-02-25T18:27:54.828-08:00,2023-02-23T12:03:25.234-08:00,5104,1.557456,0.7858028,1.557423,4031.516,6,4,2023-02-25T18:27:57.369-08:00,699071282.5146674,0,84.62,97.67506,1,0.7
2023-02-25T18:28:05.069-08:00,1677378484.001581,34.25690450674983,-118.5948908997849,299.3122,0,1.445086,11.59999856926072,180,1.603309728208074,6.39460851014268,-9999,41369.122395625,0.1248931884765625,-0.1887664794921875,-0.516265869140625,41369.060368625,-0.7917672984238089,0.08064861932559161,-0.007691659768476345,-1.72265887260437,-0.08383307605981827,-0.2938459515571594,0.05007166415452957,-0.2210094034671783,0.2974709272384644,XArbitraryZVertical,0.01200019577536537,0.0386769516011245,-0.3854503806590994,0.9218394400425753,0.08055883646011353,0.007691584061831236,-0.9967201948165894,0,0,0,-1,-1,41358.88355266667,walking,2,2023-02-25T18:27:54.828-08:00,2023-02-23T12:03:25.234-08:00,5104,1.557456,0.7858028,1.557423,4031.516,6,4,2023-02-25T18:27:57.369-08:00,699071285.0562788,0,84.84,97.67263,1,0.7
2023-02-25T18:28:05.103-08:00,1677378484.001581,34.25690450674983,-118.5948908997849,299.3122,0,1.445086,11.59999856926072,180,1.603309728208074,6.39460851014268,-9999,41369.15591062501,0.0713958740234375,-0.12493896484375,-0.4431915283203125,41369.119933625,-0.8241836920503317,0.06511790144322303,-0.1502007333289178,-3.158002614974976,-0.3826847672462463,-1.213373303413391,0.05663242936134338,-0.3392422795295715,0.460461437702179,XArbitraryZVertical,-0.05571055460720817,0.05977946198248197,-0.401424289489038,0.9122396409754734,0.06433925032615662,0.1496366113424301,-0.986645519733429,0,0,0,-1,-1,41358.88355266667,walking,2,2023-02-25T18:27:54.828-08:00,2023-02-23T12:03:25.234-08:00,5104,1.557456,0.7858028,1.557423,4031.516,6,4,2023-02-25T18:27:57.369-08:00,699071285.0562788,0,84.84,97.67263,1,0.7
2023-02-25T18:28:05.138-08:00,1677378484.001581,34.25690450674983,-118.5948908997849,299.3122,0,1.445086,11.59999856926072,180,1.603309728208074,6.39460851014268,-9999,41369.189425625,-0.0101165771484375,0.128692626953125,-0.464874267578125,41369.179497625,-0.9212451255099263,0.0003153213632943565,-0.3892042715562279,-4.541337966918945,-0.8385350704193115,-2.11658239364624,-1.707673072814941e-05,-0.3709836602210999,0.4778998494148254,XArbitraryZVertical,-0.1731529898597041,0.08609543097892888,-0.4361430038483957,0.87885424001773,0.0002917388919740915,0.3794523179531097,-0.9252112507820129,0,0,0,-1,-1,41358.88355266667,walking,2,2023-02-25T18:27:54.828-08:00,2023-02-23T12:03:25.234-08:00,5104,1.557456,0.7858028,1.557423,4031.516,6,4,2023-02-25T18:27:57.369-08:00,699071285.0562788,0,84.84,97.67263,1,0.7
2023-02-25T18:28:05.172-08:00,1677378484.001581,34.25690450674983,-118.5948908997849,299.3122,0,1.445086,11.59999856926072,180,1.603309728208074,6.39460851014268,-9999,41369.222939625,-0.139373779296875,0.614715576171875,-0.6132049560546875,41369.179497625,-0.9212451255099263,0.0003153213632943565,-0.3892042715562279,-4.541337966918945,-0.8385350704193115,-2.11658239364624,-1.707673072814941e-05,-0.3709836602210999,0.4778998494148254,XArbitraryZVertical,-0.1731529898597041,0.08609543097892888,-0.4361430038483957,0.87885424001773,0.0002917388919740915,0.3794523179531097,-0.9252112507820129,0,0,0,-1,-1,41358.88355266667,walking,2,2023-02-25T18:27:54.828-08:00,2023-02-23T12:03:25.234-08:00,5104,1.557456,0.7858028,1.557423,4031.516,6,4,2023-02-25T18:27:57.369-08:00,699071285.0562788,0,84.84,97.67263,1,0.7
2023-02-25T18:28:05.202-08:00,1677378484.001581,34.25690450674983,-118.5948908997849,299.3122,0,1.445086,11.59999856926072,180,1.603309728208074,6.39460851014268,-9999,41369.256415625,-0.3054962158203125,0.95220947265625,-0.772247314453125,41369.23906262501,-1.096375577390024,-0.1397589400830328,-0.6283614420602183,-3.094118356704712,-0.8520290851593018,-2.309438943862915,-0.1111350432038307,0.2463322281837463,0.1049063205718994,XArbitraryZVertical,-0.297716838033228,0.1039846308667962,-0.4760058564995184,0.8209568938536225,-0.1126961186528206,0.5878199934959412,-0.8011037707328796,0,0,0,-1,-1,41358.88355266667,walking,2,2023-02-25T18:27:54.828-08:00,2023-02-23T12:03:25.234-08:00,5104,1.557456,0.7858028,1.557423,4031.516,6,4,2023-02-25T18:27:57.369-08:00,699071285.0562788,0,84.84,97.67263,1,0.7
2023-02-25T18:28:05.238-08:00,1677378484.001581,34.25690450674983,-118.5948908997849,299.3122,0,1.445086,11.59999856926072,180,1.603309728208074,6.39460851014268,-9999,41369.289929625,-0.358642578125,0.6853790283203125,-0.63275146484375,41369.23906262501,-1.096375577390024,-0.1397589400830328,-0.6283614420602183,-3.094118356704712,-0.8520290851593018,-2.309438943862915,-0.1111350432038307,0.2463322281837463,0.1049063205718994,XArbitraryZVertical,-0.297716838033228,0.1039846308667962,-0.4760058564995184,0.8209568938536225,-0.1126961186528206,0.5878199934959412,-0.8011037707328796,0,0,0,-1,-1,41358.88355266667,walking,2,2023-02-25T18:27:54.828-08:00,2023-02-23T12:03:25.234-08:00,5104,1.557456,0.7858028,1.557423,4031.516,6,4,2023-02-25T18:27:57.369-08:00,699071285.0562788,0,84.84,97.67263,1,0.7
2023-02-25T18:28:05.272-08:00,1677378485.001611,34.25690333349227,-118.594901184074,299.6267,0,1.393524,11.59999141830712,180,1.671067320034727,6.305426048778919,-9999,41369.323444625,-0.3668060302734375,0.533538818359375,-0.458221435546875,41369.298626625,-1.303032880608439,-0.3280306707303757,-0.7201427575324733,-2.034423828125,-0.9629587531089783,-2.27356481552124,-0.119996652007103,-0.02416181564331055,0.1311850547790527,XArbitraryZVertical,-0.3690722380821297,0.08928051927959718,-0.5141434949378437,0.7690716561455135,-0.2421859502792358,0.659492015838623,-0.711629331111908,0,0,0,-1,-1,41358.88355266667,walking,2,2023-02-25T18:27:54.828-08:00,2023-02-23T12:03:25.234-08:00,5104,1.557456,0.7858028,1.557423,4031.516,6,4,2023-02-25T18:27:57.369-08:00,699071285.0562788,0,84.84,97.67263,1,0.7
2023-02-25T18:28:05.306-08:00,1677378485.001611,34.25690333349227,-118.594901184074,299.6267,0,1.393524,11.59999141830712,180,1.671067320034727,6.305426048778919,-9999,41369.356959625,-0.4871063232421875,0.6479949951171875,-0.436492919921875,41369.298626625,-1.303032880608439,-0.3280306707303757,-0.7201427575324733,-2.034423828125,-0.9629587531089783,-2.27356481552124,-0.119996652007103,-0.02416181564331055,0.1311850547790527,XArbitraryZVertical,-0.3690722380821297,0.08928051927959718,-0.5141434949378437,0.7690716561455135,-0.2421859502792358,0.659492015838623,-0.711629331111908,0,0,0,-1,-1,41358.88355266667,walking,2,2023-02-25T18:27:54.828-08:00,2023-02-23T12:03:25.234-08:00,5104,1.557456,0.7858028,1.557423,4031.516,6,4,2023-02-25T18:27:57.369-08:00,699071285.0562788,0,84.84,97.67263,1,0.7
2023-02-25T18:28:05.337-08:00,1677378485.001611,34.25690333349227,-118.594901184074,299.6267,0,1.393524,11.59999141830712,180,1.671067320034727,6.305426048778919,-9999,41369.39043462501,-0.7472381591796875,0.758544921875,-0.4619598388671875,41369.358190625,-1.58476273176002,-0.5798237591126545,-0.8051740031995654,-3.11531925201416,-1.090147376060486,-2.589080572128296,-0.1074356436729431,-0.07295620441436768,0.1432307958602905,XArbitraryZVertical,-0.4508949197632118,0.08265554061376182,-0.5491200909505453,0.698805389103574,-0.379670649766922,0.7209512591362,-0.5797236561775208,0,0,0,-1,-1,41358.88355266667,walking,2,2023-02-25T18:27:54.828-08:00,2023-02-23T12:03:25.234-08:00,5104,1.557456,0.7858028,1.557423,4031.516,6,4,2023-02-25T18:27:57.369-08:00,699071285.0562788,0,84.84,97.67263,1,0.7
2023-02-25T18:28:05.371-08:00,1677378485.001611,34.25690333349227,-118.594901184074,299.6267,0,1.393524,11.59999141830712,180,1.671067320034727,6.305426048778919,-9999,41369.423949625,-0.873199462890625,0.9004058837890625,-0.4604339599609375,41369.417755625,-1.938991263160534,-0.8984271733075406,-0.8287530295880358,-2.690585136413574,-0.6221386194229126,-2.778640508651733,-0.3309575319290161,0.1283282041549683,-0.03732344508171082,XArbitraryZVertical,-0.5329537017545365,0.07418725526526757,-0.5810167801103578,0.6106357503514531,-0.5287073254585266,0.7370892763137817,-0.4209132194519043,0,0,0,-1,-1,41358.88355266667,walking,2,2023-02-25T18:27:54.828-08:00,2023-02-23T12:03:25.234-08:00,5104,1.557456,0.7858028,1.557423,4031.516,6,4,2023-02-25T18:27:57.369-08:00,699071285.0562788,0,84.84,97.67263,1,0.7
2023-02-25T18:28:05.406-08:00,1677378485.001611,34.25690333349227,-118.594901184074,299.6267,0,1.393524,11.59999141830712,180,1.671067320034727,6.305426048778919,-9999,41369.457464625,-0.7499237060546875,1.046646118164062,-0.3897705078125,41369.417755625,-1.938991263160534,-0.8984271733075406,-0.8287530295880358,-2.690585136413574,-0.6221386194229126,-2.778640508651733,-0.3309575319290161,0.1283282041549683,-0.03732344508171082,XArbitraryZVertical,-0.5329537017545365,0.07418725526526757,-0.5810167801103578,0.6106357503514531,-0.5287073254585266,0.7370892763137817,-0.4209132194519043,0,0,0,-1,-1,41358.88355266667,walking,2,2023-02-25T18:27:54.828-08:00,2023-02-23T12:03:25.234-08:00,5104,1.557456,0.7858028,1.557423,4031.516,6,4,2023-02-25T18:27:57.369-08:00,699071285.0562788,0,84.84,97.67263,1,0.7
2023-02-25T18:28:05.440-08:00,1677378485.001611,34.25690333349227,-118.594901184074,299.6267,0,1.393524,11.59999141830712,180,1.671067320034727,6.305426048778919,-9999,41369.490979625,-1.336227416992188,0.91552734375,-0.3976593017578125,41369.477319625,-2.187985603619802,-1.110470134632536,-0.7631257209335819,-1.396015524864197,-1.063729166984558,-2.815192699432373,-0.4618144631385803,0.1951993703842163,-0.03636336326599121,XArbitraryZVertical,-0.5798910787932414,0.05661031366401692,-0.6106143475558686,0.5363503547066396,-0.6474537253379822,0.6911836862564087,-0.3210432231426239,0,0,0,-1,-1,41358.88355266667,walking,2,2023-02-25T18:27:54.828-08:00,2023-02-23T12:03:25.234-08:00,5104,1.557456,0.7858028,1.557423,4031.516,6,4,2023-02-25T18:27:57.369-08:00,699071285.0562788,0,84.84,97.67263,1,0.7
2023-02-25T18:28:05.470-08:00,1677378485.001611,34.25690333349227,-118.594901184074,299.6267,0,1.393524,11.59999141830712,180,1.671067320034727,6.305426048778919,-9999,41369.524454625,-0.9809722900390625,0.9864501953125,-0.3944091796875,41369.477319625,-2.187985603619802,-1.110470134632536,-0.7631257209335819,-1.396015524864197,-1.063729166984558,-2.815192699432373,-0.4618144631385803,0.1951993703842163,-0.03636336326599121,XArbitraryZVertical,-0.5798910787932414,0.05661031366401692,-0.6106143475558686,0.5363503547066396,-0.6474537253379822,0.6911836862564087,-0.3210432231426239,0,0,0,-1,-1,41358.88355266667,walking,2,2023-02-25T18:27:54.828-08:00,2023-02-23T12:03:25.234-08:00,5104,1.557456,0.7858028,1.557423,4031.516,6,4,2023-02-25T18:27:57.369-08:00,699071285.0562788,0,84.84,97.67263,1,0.7
2023-02-25T18:28:05.510-08:00,1677378485.001611,34.25690333349227,-118.594901184074,299.6267,0,1.393524,11.59999141830712,180,1.671067320034727,6.305426048778919,-9999,41369.55796962501,-0.8189849853515625,1.055770874023438,-0.3554534912109375,41369.53688362501,-2.389366175481444,-1.226651489657198,-0.6493968144170449,-1.716740489006042,0.5268031358718872,-2.341488599777222,-0.1699904203414917,0.4223934412002563,-0.1268993318080902,XArbitraryZVertical,-0.603204469126789,0.04227009053560704,-0.6533877393088061,0.4554579912233155,-0.7497482895851135,0.6047061085700989,-0.2687152028083801,0,0,0,-1,-1,41358.88355266667,walking,2,2023-02-25T18:27:54.828-08:00,2023-02-23T12:03:25.234-08:00,5104,1.557456,0.7858028,1.557423,4031.516,6,4,2023-02-25T18:27:57.369-08:00,699071285.0562788,0,84.84,97.67263,1,0.7
2023-02-25T18:28:05.540-08:00,1677378485.001611,34.25690333349227,-118.594901184074,299.6267,0,1.393524,11.59999141830712,180,1.671067320034727,6.305426048778919,-9999,41369.591484625,-0.6364593505859375,0.87042236328125,-0.302642822265625,41369.53688362501,-2.389366175481444,-1.226651489657198,-0.6493968144170449,-1.716740489006042,0.5268031358718872,-2.341488599777222,-0.1699904203414917,0.4223934412002563,-0.1268993318080902,XArbitraryZVertical,-0.603204469126789,0.04227009053560704,-0.6533877393088061,0.4554579912233155,-0.7497482895851135,0.6047061085700989,-0.2687152028083801,0,0,0,-1,-1,41358.88355266667,walking,2,2023-02-25T18:27:54.828-08:00,2023-02-23T12:03:25.234-08:00,5104,1.557456,0.7858028,1.557423,4031.516,6,4,2023-02-25T18:27:57.369-08:00,699071285.0562788,0,84.84,97.67263,1,0.7
2023-02-25T18:28:05.574-08:00,1677378485.001611,34.25690333349227,-118.594901184074,299.6267,0,1.393524,11.59999141830712,180,1.671067320034727,6.305426048778919,-9999,41369.624999625,-0.6862335205078125,0.78515625,-0.2012786865234375,41369.596448625,-2.532093184584354,-1.269029885222106,-0.5817570977829859,-0.8336372375488281,0.4372255504131317,-1.192264080047607,0.1513213515281677,0.3498753309249878,-0.0539604127407074,XArbitraryZVertical,-0.6110225899934983,0.0499330074737373,-0.6849659190753568,0.3936744957442793,-0.7977445721626282,0.5494928359985352,-0.2483161836862564,0,0,0,-1,-1,41358.88355266667,walking,2,2023-02-25T18:27:54.828-08:00,2023-02-23T12:03:25.234-08:00,5104,1.557456,0.7858028,1.557423,4031.516,6,4,2023-02-25T18:27:57.369-08:00,699071285.0562788,0,84.84,97.67263,1,0.7
2023-02-25T18:28:05.605-08:00,1677378485.001611,34.25690333349227,-118.594901184074,299.6267,0,1.393524,11.59999141830712,180,1.671067320034727,6.305426048778919,-9999,41369.658474625,-0.8125762939453125,0.723724365234375,-0.2538604736328125,41369.596448625,-2.532093184584354,-1.269029885222106,-0.5817570977829859,-0.8336372375488281,0.4372255504131317,-1.192264080047607,0.1513213515281677,0.3498753309249878,-0.0539604127407074,XArbitraryZVertical,-0.6110225899934983,0.0499330074737373,-0.6849659190753568,0.3936744957442793,-0.7977445721626282,0.5494928359985352,-0.2483161836862564,0,0,0,-1,-1,41358.88355266667,walking,2,2023-02-25T18:27:54.828-08:00,2023-02-23T12:03:25.234-08:00,5104,1.557456,0.7858028,1.557423,4031.516,6,4,2023-02-25T18:27:57.369-08:00,699071285.0562788,0,84.84,97.67263,1,0.7
2023-02-25T18:28:05.639-08:00,1677378485.001611,34.25690333349227,-118.594901184074,299.6267,0,1.393524,11.59999141830712,180,1.671067320034727,6.305426048778919,-9999,41369.691989625,-0.8192291259765625,0.6522064208984375,-0.2612152099609375,41369.656012625,-2.577566517627886,-1.280907539325773,-0.5467320040850736,-0.2311205863952637,0.09289775788784027,-0.4036041498184204,0.02358782291412354,0.2011861205101013,0.001043885946273804,XArbitraryZVertical,-0.6128836732870164,0.04780084005730778,-0.696657526123184,0.3698065276783504,-0.8185859322547913,0.5198984146118164,-0.244177371263504,0,0,0,-1,-1,41358.88355266667,walking,2,2023-02-25T18:27:54.828-08:00,2023-02-23T12:03:25.234-08:00,5104,1.557456,0.7858028,1.557423,4031.516,6,4,2023-02-25T18:27:57.369-08:00,699071285.0562788,0,84.84,97.67263,1,0.7
2023-02-25T18:28:05.674-08:00,1677378485.001611,34.25690333349227,-118.594901184074,299.6267,0,1.393524,11.59999141830712,180,1.671067320034727,6.305426048778919,-9999,41369.725504625,-0.64599609375,0.532684326171875,-0.2241668701171875,41369.715576625,-2.596411552601907,-1.278665269342765,-0.5307291430871551,-0.1968545615673065,0.2494559437036514,-0.2962926030158997,0.1373154520988464,0.05282819271087646,0.01632112264633179,XArbitraryZVertical,-0.6111779330961986,0.04767764361797028,-0.7036819931640151,0.3591936932110992,-0.8258987665176392,0.5061623454093933,-0.2483767569065094,0,0,0,-1,-1,41358.88355266667,walking,2,2023-02-25T18:27:54.828-08:00,2023-02-23T12:03:25.234-08:00,5104,1.557456,0.7858028,1.557423,4031.516,6,4,2023-02-25T18:27:57.369-08:00,699071285.0562788,0,84.84,97.67263,1,0.7
2023-02-25T18:28:05.708-08:00,1677378485.001611,34.25690333349227,-118.594901184074,299.6267,0,1.393524,11.59999141830712,180,1.671067320034727,6.305426048778919,-9999,41369.759018625,-0.621337890625,0.4938812255859375,-0.21942138671875,41369.715576625,-2.596411552601907,-1.278665269342765,-0.5307291430871551,-0.1968545615673065,0.2494559437036514,-0.2962926030158997,0.1373154520988464,0.05282819271087646,0.01632112264633179,XArbitraryZVertical,-0.6111779330961986,0.04767764361797028,-0.7036819931640151,0.3591936932110992,-0.8258987665176392,0.5061623454093933,-0.2483767569065094,0,0,0,-1,-1,41358.88355266667,walking,2,2023-02-25T18:27:54.828-08:00,2023-02-23T12:03:25.234-08:00,5104,1.557456,0.7858028,1.557423,4031.516,6,4,2023-02-25T18:27:57.369-08:00,699071285.0562788,0,84.84,97.67263,1,0.7
2023-02-25T18:28:05.738-08:00,1677378485.001611,34.25690333349227,-118.594901184074,299.6267,0,1.393524,11.59999141830712,180,1.671067320034727,6.305426048778919,-9999,41369.79249462501,-0.562957763671875,0.5242462158203125,-0.264739990234375,41369.775141625,-2.628531654442001,-1.284500172057385,-0.5159686676770534,-0.4589413106441498,0.1210018321871758,-0.4623774290084839,0.2502279281616211,0.01275637745857239,0.008469462394714355,XArbitraryZVertical,-0.6120581728471193,0.05065964874636986,-0.710138331334613,0.3442703194723956,-0.8344107270240784,0.4933776557445526,-0.2456367909908295,0,0,0,-1,-1,41358.88355266667,walking,2,2023-02-25T18:27:54.828-08:00,2023-02-23T12:03:25.234-08:00,5104,1.557456,0.7858028,1.557423,4031.516,6,4,2023-02-25T18:27:57.369-08:00,699071285.0562788,0,84.84,97.67263,1,0.7
2023-02-25T18:28:05.773-08:00,1677378485.001611,34.25690333349227,-118.594901184074,299.6267,0,1.393524,11.59999141830712,180,1.671067320034727,6.305426048778919,-9999,41369.826009625,-0.6327362060546875,0.5734710693359375,-0.272796630859375,41369.775141625,-2.628531654442001,-1.284500172057385,-0.5159686676770534,-0.4589413106441498,0.1210018321871758,-0.4623774290084839,0.2502279281616211,0.01275637745857239,0.008469462394714355,XArbitraryZVertical,-0.6120581728471193,0.05065964874636986,-0.710138331334613,0.3442703194723956,-0.8344107270240784,0.4933776557445526,-0.2456367909908295,0,0,0,-1,-1,41358.88355266667,walking,2,2023-02-25T18:27:54.828-08:00,2023-02-23T12:03:25.234-08:00,5104,1.557456,0.7858028,1.557423,4031.516,6,4,2023-02-25T18:27:57.369-08:00,699071285.0562788,0,84.84,97.67263,1,0.7
2023-02-25T18:28:05.807-08:00,1677378485.001611,34.25690333349227,-118.594901184074,299.6267,0,1.393524,11.59999141830712,180,1.671067320034727,6.305426048778919,-9999,41369.859523625,-0.652740478515625,0.554046630859375,-0.254486083984375,41369.83470562501,-2.646812891140579,-1.296595107271868,-0.4873567051267239,0.2714986801147461,-0.2184819579124451,-0.6014307737350464,0.2018375992774963,0.1062471568584442,-0.03288803994655609,XArbitraryZVertical,-0.6152455697616752,0.0429731892149805,-0.7143372005552439,0.3306787610230815,-0.8505649566650391,0.4682919681072235,-0.2392523884773254,0,0,0,-1,-1,41358.88355266667,walking,2,2023-02-25T18:27:54.828-08:00,2023-02-23T12:03:25.234-08:00,5104,1.557456,0.7858028,1.557423,4031.516,6,4,2023-02-25T18:27:57.369-08:00,699071285.0562788,0,84.84,97.67263,1,0.7
2023-02-25T18:28:05.842-08:00,1677378485.001611,34.25690333349227,-118.594901184074,299.6267,0,1.393524,11.59999141830712,180,1.671067320034727,6.305426048778919,-9999,41369.893038,-0.62042236328125,0.5704345703125,-0.2984771728515625,41369.83470562501,-2.646812891140579,-1.296595107271868,-0.4873567051267239,0.2714986801147461,-0.2184819579124451,-0.6014307737350464,0.2018375992774963,0.1062471568584442,-0.03288803994655609,XArbitraryZVertical,-0.6152455697616752,0.0429731892149805,-0.7143372005552439,0.3306787610230815,-0.8505649566650391,0.4682919681072235,-0.2392523884773254,0,0,0,-1,-1,41358.88355266667,walking,2,2023-02-25T18:27:54.828-08:00,2023-02-23T12:03:25.234-08:00,5104,1.557456,0.7858028,1.557423,4031.516,6,4,2023-02-25T18:27:57.369-08:00,699071285.0562788,0,84.84,97.67263,1,0.7
2023-02-25T18:28:05.873-08:00,1677378485.001611,34.25690333349227,-118.594901184074,299.6267,0,1.393524,11.59999141830712,180,1.671067320034727,6.305426048778919,-9999,41369.92651300001,-0.69781494140625,0.575164794921875,-0.337066650390625,41369.894269,-2.611597503199693,-1.29867727274075,-0.4432328255272259,1.069939851760864,-0.4258141219615936,-0.4499362111091614,0.2497067451477051,0.1415724158287048,-0.05567562580108643,XArbitraryZVertical,-0.6151340105670065,0.01446981025147681,-0.7150721658346127,0.331771788213411,-0.8701290488243103,0.4288621246814728,-0.2428015470504761,0,0,0,-1,-1,41358.88355266667,walking,2,2023-02-25T18:27:54.828-08:00,2023-02-23T12:03:25.234-08:00,5104,1.557456,0.7858028,1.557423,4031.516,6,4,2023-02-25T18:27:57.369-08:00,699071285.0562788,0,84.84,97.67263,1,0.7
2023-02-25T18:28:05.907-08:00,1677378485.001611,34.25690333349227,-118.594901184074,299.6267,0,1.393524,11.59999141830712,180,1.671067320034727,6.305426048778919,-9999,41369.960028,-0.723907470703125,0.5601959228515625,-0.288055419921875,41369.953834,-2.547971388990383,-1.302658240471908,-0.4163246231193264,0.9002474546432495,-0.5615559220314026,0.1392791122198105,0.1641109585762024,0.1597461998462677,-0.06151169538497925,XArbitraryZVertical,-0.6152892329808641,-0.01631401214967615,-0.7074438689520138,0.3473848016305443,-0.8818996548652649,0.4044017493724823,-0.2423060238361359,0,0,0,-1,-1,41358.88355266667,walking,2,2023-02-25T18:27:54.828-08:00,2023-02-23T12:03:25.234-08:00,5104,1.557456,0.7858028,1.557423,4031.516,6,4,2023-02-25T18:27:57.369-08:00,699071285.0562788,0,84.84,97.67263,1,0.7
2023-02-25T18:28:05.942-08:00,1677378485.001611,34.25690333349227,-118.594901184074,299.6267,0,1.393524,11.59999141830712,180,1.671067320034727,6.305426048778919,-9999,41369.993543,-0.7559051513671875,0.5589752197265625,-0.2321624755859375,41369.953834,-2.547971388990383,-1.302658240471908,-0.4163246231193264,0.9002474546432495,-0.5615559220314026,0.1392791122198105,0.1641109585762024,0.1597461998462677,-0.06151169538497925,XArbitraryZVertical,-0.6152892329808641,-0.01631401214967615,-0.7074438689520138,0.3473848016305443,-0.8818996548652649,0.4044017493724823,-0.2423060238361359,0,0,0,-1,-1,41358.88355266667,walking,2,2023-02-25T18:27:54.828-08:00,2023-02-23T12:03:25.234-08:00,5104,1.557456,0.7858028,1.557423,4031.516,6,4,2023-02-25T18:27:57.369-08:00,699071285.0562788,0,84.84,97.67263,1,0.7
2023-02-25T18:28:05.976-08:00,1677378485.001611,34.25690333349227,-118.594901184074,299.6267,0,1.393524,11.59999141830712,180,1.671067320034727,6.305426048778919,-9999,41370.027058,-0.8035736083984375,0.54351806640625,-0.1879730224609375,41370.013398,-2.495457817269176,-1.315563903483215,-0.4301907980674941,0.6665341854095459,-0.6094438433647156,0.6721349358558655,0.09292823076248169,0.1302121579647064,0.02721157670021057,XArbitraryZVertical,-0.6199993191588389,-0.02945278388598094,-0.6916905754800929,0.3691848004293057,-0.8794423937797546,0.4170442223548889,-0.2294667512178421,0,0,0,-1,-1,41358.88355266667,walking,2,2023-02-25T18:27:54.828-08:00,2023-02-23T12:03:25.234-08:00,5104,1.557456,0.7858028,1.557423,4031.516,6,4,2023-02-25T18:27:57.369-08:00,699071285.0562788,0,84.84,97.67263,1,0.7
2023-02-25T18:28:06.006-08:00,1677378485.001611,34.25690333349227,-118.594901184074,299.6267,0,1.393524,11.59999141830712,180,1.671067320034727,6.305426048778919,-9999,41370.060533,-0.9871978759765625,0.526092529296875,-0.1298828125,41370.013398,-2.495457817269176,-1.315563903483215,-0.4301907980674941,0.6665341854095459,-0.6094438433647156,0.6721349358558655,0.09292823076248169,0.1302121579647064,0.02721157670021057,XArbitraryZVertical,-0.6199993191588389,-0.02945278388598094,-0.6916905754800929,0.3691848004293057,-0.8794423937797546,0.4170442223548889,-0.2294667512178421,0,0,0,-1,-1,41358.88355266667,walking,2,2023-02-25T18:27:54.828-08:00,2023-02-23T12:03:25.234-08:00,5104,1.557456,0.7858028,1.557423,4031.516,6,4,2023-02-25T18:27:57.369-08:00,699071285.0562788,0,84.84,97.67263,1,0.7
2023-02-25T18:28:06.041-08:00,1677378485.001611,34.25690333349227,-118.594901184074,299.6267,0,1.393524,11.59999141830712,180,1.671067320034727,6.305426048778919,-9999,41370.094048,-1.594558715820312,0.6752166748046875,-0.194488525390625,41370.07296200001,-2.422511632649152,-1.331806018782771,-0.4609079508847908,1.322159171104431,-1.23143470287323,0.6746015548706055,-0.2941752672195435,0.1021745800971985,0.0908801257610321,XArbitraryZVertical,-0.6261787968800394,-0.04347758596625795,-0.6669695870475868,0.4014491972120212,-0.8701925277709961,0.4447614848613739,-0.2120196223258972,0,0,0,-1,-1,41358.88355266667,walking,2,2023-02-25T18:27:54.828-08:00,2023-02-23T12:03:25.234-08:00,5104,1.557456,0.7858028,1.557423,4031.516,6,4,2023-02-25T18:27:57.369-08:00,699071285.0562788,0,84.84,97.67263,1,0.7
2023-02-25T18:28:06.076-08:00,1677378485.001611,34.25690333349227,-118.594901184074,299.6267,0,1.393524,11.59999141830712,180,1.671067320034727,6.305426048778919,-9999,41370.127563,-1.31488037109375,0.6612091064453125,-0.281646728515625,41370.07296200001,-2.422511632649152,-1.331806018782771,-0.4609079508847908,1.322159171104431,-1.23143470287323,0.6746015548706055,-0.2941752672195435,0.1021745800971985,0.0908801257610321,XArbitraryZVertical,-0.6261787968800394,-0.04347758596625795,-0.6669695870475868,0.4014491972120212,-0.8701925277709961,0.4447614848613739,-0.2120196223258972,0,0,0,-1,-1,41358.88355266667,walking,2,2023-02-25T18:27:54.828-08:00,2023-02-23T12:03:25.234-08:00,5104,1.557456,0.7858028,1.557423,4031.516,6,4,2023-02-25T18:27:57.369-08:00,699071285.0562788,0,84.84,97.67263,1,0.7
2023-02-25T18:28:06.110-08:00,1677378485.001611,34.25690333349227,-118.594901184074,299.6267,0,1.393524,11.59999141830712,180,1.671067320034727,6.305426048778919,-9999,41370.161078,-1.072174072265625,0.51043701171875,-0.202850341796875,41370.132527,-2.306331886790757,-1.323006809274416,-0.4558328058205776,1.64703905582428,-0.06103800982236862,0.1981071382761002,-0.3726022243499756,0.1917781829833984,-0.05678893625736237,XArbitraryZVertical,-0.6192983217376709,-0.07975001711688801,-0.6463018809018679,0.4386378837091643,-0.8704701066017151,0.4402102530002594,-0.2202190458774567,0,0,0,-1,-1,41358.88355266667,walking,2,2023-02-25T18:27:54.828-08:00,2023-02-23T12:03:25.234-08:00,5104,1.557456,0.7858028,1.557423,4031.516,6,4,2023-02-25T18:27:57.369-08:00,699071285.0562788,0,84.84,97.67263,1,0.7
2023-02-25T18:28:06.141-08:00,1677378485.001611,34.25690333349227,-118.594901184074,299.6267,0,1.393524,11.59999141830712,180,1.671067320034727,6.305426048778919,-9999,41370.194553,-1.295883178710938,0.5600433349609375,-0.2953643798828125,41370.132527,-2.306331886790757,-1.323006809274416,-0.4558328058205776,1.64703905582428,-0.06103800982236862,0.1981071382761002,-0.3726022243499756,0.1917781829833984,-0.05678893625736237,XArbitraryZVertical,-0.6192983217376709,-0.07975001711688801,-0.6463018809018679,0.4386378837091643,-0.8704701066017151,0.4402102530002594,-0.2202190458774567,0,0,0,-1,-1,41358.88355266667,walking,2,2023-02-25T18:27:54.828-08:00,2023-02-23T12:03:25.234-08:00,5104,1.557456,0.7858028,1.557423,4031.516,6,4,2023-02-25T18:27:57.369-08:00,699071285.0562788,0,84.84,97.67263,1,0.7
2023-02-25T18:28:06.175-08:00,1677378485.001611,34.25690333349227,-118.594901184074,299.6267,0,1.393524,11.59999141830712,180,1.671067320034727,6.305426048778919,-9999,41370.228068,-1.039337158203125,0.6698455810546875,-0.322235107421875,41370.192091,-2.230122799478542,-1.310100613058906,-0.4715773196124722,0.4715316593647003,-0.1891784071922302,0.7879968285560608,-0.4403194785118103,0.09412407875061035,-0.05739800631999969,XArbitraryZVertical,-0.6134226628918996,-0.09435431001323133,-0.6297411735830234,0.4671571756945959,-0.8607516288757324,0.4542919993400574,-0.2296198010444641,0,0,0,-1,-1,41358.88355266667,walking,2,2023-02-25T18:27:54.828-08:00,2023-02-23T12:03:25.234-08:00,5104,1.557456,0.7858028,1.557423,4031.516,6,4,2023-02-25T18:27:57.369-08:00,699071285.0562788,0,84.84,97.67263,1,0.7
2023-02-25T18:28:06.210-08:00,1677378485.001611,34.25690333349227,-118.594901184074,299.6267,0,1.393524,11.59999141830712,180,1.671067320034727,6.305426048778919,-9999,41370.261583,-0.8086700439453125,0.6411285400390625,-0.34576416015625,41370.251655,-2.205768559832316,-1.293495298227539,-0.5127788656187637,-0.0246217418462038,0.2889333069324493,0.7908728718757629,-0.05652701854705811,0.1655730903148651,-0.09819531440734863,XArbitraryZVertical,-0.6115187044794866,-0.08227648745596744,-0.620062875746351,0.4845590045644528,-0.8380957245826721,0.4906005859375,-0.2385509014129639,0,0,0,-1,-1,41358.88355266667,walking,2,2023-02-25T18:27:54.828-08:00,2023-02-23T12:03:25.234-08:00,5104,1.557456,0.7858028,1.557423,4031.516,6,4,2023-02-25T18:27:57.369-08:00,699071285.0562788,0,84.84,97.67263,1,0.7
2023-02-25T18:28:06.244-08:00,1677378485.001611,34.25690333349227,-118.594901184074,299.6267,0,1.393524,11.59999141830712,180,1.671067320034727,6.305426048778919,-9999,41370.295097,-0.6194305419921875,0.609893798828125,-0.3468475341796875,41370.251655,-2.205768559832316,-1.293495298227539,-0.5127788656187637,-0.0246217418462038,0.2889333069324493,0.7908728718757629,-0.05652701854705811,0.1655730903148651,-0.09819531440734863,XArbitraryZVertical,-0.6115187044794866,-0.08227648745596744,-0.620062875746351,0.4845590045644528,-0.8380957245826721,0.4906005859375,-0.2385509014129639,0,0,0,-1,-1,41358.88355266667,walking,2,2023-02-25T18:27:54.828-08:00,2023-02-23T12:03:25.234-08:00,5104,1.557456,0.7858028,1.557423,4031.516,6,4,2023-02-25T18:27:57.369-08:00,699071285.0562788,0,84.84,97.67263,1,0.7
2023-02-25T18:28:06.274-08:00,1677378485.001611,34.25690333349227,-118.594901184074,299.6267,0,1.393524,11.59999141830712,180,1.671067320034727,6.305426048778919,-9999,41370.32857300001,-0.5497894287109375,0.5719451904296875,-0.32183837890625,41370.31122,-2.19524680583435,-1.261358322095447,-0.5711844337123596,-0.1765222549438477,0.4743537604808807,1.23965060710907,0.2320305705070496,0.05812603235244751,-0.09049594402313232,XArbitraryZVertical,-0.6073288140043808,-0.05531594248185023,-0.6140635593771809,0.5010167811130437,-0.8013054132461548,0.5406288504600525,-0.2561837136745453,0,0,0,-1,-1,41358.88355266667,walking,2,2023-02-25T18:27:54.828-08:00,2023-02-23T12:03:25.234-08:00,5104,1.557456,0.7858028,1.557423,4031.516,6,4,2023-02-25T18:27:57.369-08:00,699071285.0562788,0,84.84,97.67263,1,0.7
2023-02-25T18:28:06.309-08:00,1677378485.001611,34.25690333349227,-118.594901184074,299.6267,0,1.393524,11.59999141830712,180,1.671067320034727,6.305426048778919,-9999,41370.362087,-0.5850982666015625,0.548919677734375,-0.2693939208984375,41370.31122,-2.19524680583435,-1.261358322095447,-0.5711844337123596,-0.1765222549438477,0.4743537604808807,1.23965060710907,0.2320305705070496,0.05812603235244751,-0.09049594402313232,XArbitraryZVertical,-0.6073288140043808,-0.05531594248185023,-0.6140635593771809,0.5010167811130437,-0.8013054132461548,0.5406288504600525,-0.2561837136745453,0,0,0,-1,-1,41358.88355266667,walking,2,2023-02-25T18:27:54.828-08:00,2023-02-23T12:03:25.234-08:00,5104,1.557456,0.7858028,1.557423,4031.516,6,4,2023-02-25T18:27:57.369-08:00,699071285.0562788,0,84.84,97.67263,1,0.7
2023-02-25T18:28:06.344-08:00,1677378486.001641,34.25690211335034,-118.594901570787,299.5616,0,1.722925,11.59999118921952,180,1.626102235262777,6.441789535894399,-9999,41370.395602,-0.656951904296875,0.4940948486328125,-0.2079315185546875,41370.37078400001,-2.17374060105161,-1.224959853287676,-0.6534709964769052,-0.09940134733915329,0.3820781409740448,1.496691107749939,0.1492819786071777,-0.05844646692276001,0.01375943422317505,XArbitraryZVertical,-0.6041453838244026,-0.02086793740357806,-0.6001075161335285,0.5238738785200482,-0.746968686580658,0.60794597864151,-0.2691457569599152,0,0,0,-1,-1,41358.88355266667,walking,2,2023-02-25T18:27:54.828-08:00,2023-02-23T12:03:25.234-08:00,5104,1.557456,0.7858028,1.557423,4031.516,6,4,2023-02-25T18:27:57.369-08:00,699071285.0562788,0,84.84,97.67263,1,0.7
2023-02-25T18:28:06.378-08:00,1677378486.001641,34.25690211335034,-118.594901570787,299.5616,0,1.722925,11.59999118921952,180,1.626102235262777,6.441789535894399,-9999,41370.429117,-0.6781158447265625,0.416534423828125,-0.15240478515625,41370.37078400001,-2.17374060105161,-1.224959853287676,-0.6534709964769052,-0.09940134733915329,0.3820781409740448,1.496691107749939,0.1492819786071777,-0.05844646692276001,0.01375943422317505,XArbitraryZVertical,-0.6041453838244026,-0.02086793740357806,-0.6001075161335285,0.5238738785200482,-0.746968686580658,0.60794597864151,-0.2691457569599152,0,0,0,-1,-1,41358.88355266667,walking,2,2023-02-25T18:27:54.828-08:00,2023-02-23T12:03:25.234-08:00,5104,1.557456,0.7858028,1.557423,4031.516,6,4,2023-02-25T18:27:57.369-08:00,699071285.0562788,0,84.84,97.67263,1,0.7
2023-02-25T18:28:06.409-08:00,1677378486.001641,34.25690211335034,-118.594901570787,299.5616,0,1.722925,11.59999118921952,180,1.626102235262777,6.441789535894399,-9999,41370.462592,-0.711639404296875,0.3868408203125,-0.126251220703125,41370.430348,-2.136156622869131,-1.171994610543569,-0.7246993257778758,-0.03129123151302338,0.6375868916511536,1.087120532989502,0.01183027029037476,-0.2463759183883667,0.1383257210254669,XArbitraryZVertical,-0.5954341553997069,0.009639565654480042,-0.5882215972733776,0.5471385466289846,-0.6899461150169373,0.6629103422164917,-0.2907304763793945,0,0,0,-1,-1,41358.88355266667,walking,2,2023-02-25T18:27:54.828-08:00,2023-02-23T12:03:25.234-08:00,5104,1.557456,0.7858028,1.557423,4031.516,6,4,2023-02-25T18:27:57.369-08:00,699071285.0562788,0,84.84,97.67263,1,0.7
2023-02-25T18:28:06.443-08:00,1677378486.001641,34.25690211335034,-118.594901570787,299.5616,0,1.722925,11.59999118921952,180,1.626102235262777,6.441789535894399,-9999,41370.496107,-0.7246551513671875,0.4058990478515625,-0.1554412841796875,41370.489913,-2.121193706156709,-1.119829796692771,-0.7738308052385376,-0.1068066582083702,0.7141919732093811,0.4599978625774384,-0.08389711380004883,-0.2969791293144226,0.1558274328708649,XArbitraryZVertical,-0.5853471071326446,0.03880140485996864,-0.5868670027206432,0.5580772191752786,-0.6437334418296814,0.6988803148269653,-0.3117264211177826,0,0,0,-1,-1,41358.88355266667,walking,2,2023-02-25T18:27:54.828-08:00,2023-02-23T12:03:25.234-08:00,5104,1.557456,0.7858028,1.557423,4031.516,6,4,2023-02-25T18:27:57.369-08:00,699071285.0562788,0,84.84,97.67263,1,0.7
2023-02-25T18:28:06.478-08:00,1677378486.001641,34.25690211335034,-118.594901570787,299.5616,0,1.722925,11.59999118921952,180,1.626102235262777,6.441789535894399,-9999,41370.529622,-0.7330474853515625,0.3950958251953125,-0.1891632080078125,41370.489913,-2.121193706156709,-1.119829796692771,-0.7738308052385376,-0.1068066582083702,0.7141919732093811,0.4599978625774384,-0.08389711380004883,-0.2969791293144226,0.1558274328708649,XArbitraryZVertical,-0.5853471071326446,0.03880140485996864,-0.5868670027206432,0.5580772191752786,-0.6437334418296814,0.6988803148269653,-0.3117264211177826,0,0,0,-1,-1,41358.88355266667,walking,2,2023-02-25T18:27:54.828-08:00,2023-02-23T12:03:25.234-08:00,5104,1.557456,0.7858028,1.557423,4031.516,6,4,2023-02-25T18:27:57.369-08:00,699071285.0562788,0,84.84,97.67263,1,0.7
2023-02-25T18:28:06.512-08:00,1677378486.001641,34.25690211335034,-118.594901570787,299.5616,0,1.722925,11.59999118921952,180,1.626102235262777,6.441789535894399,-9999,41370.563137,-0.84136962890625,0.350982666015625,-0.1542816162109375,41370.549477,-2.101007346226601,-1.069743632713278,-0.7720640375104014,0.5970295667648315,0.4307407736778259,-0.3251402378082275,-0.1390543580055237,-0.3132466077804565,0.1423898935317993,XArbitraryZVertical,-0.5707688970316016,0.04630806337732957,-0.5961446506157605,0.5627522313207474,-0.6284016966819763,0.6976155638694763,-0.3441568613052368,0,0,0,-1,-1,41358.88355266667,walking,2,2023-02-25T18:27:54.828-08:00,2023-02-23T12:03:25.234-08:00,5104,1.557456,0.7858028,1.557423,4031.516,6,4,2023-02-25T18:27:57.369-08:00,699071285.0562788,0,84.84,97.67263,1,0.7
2023-02-25T18:28:06.542-08:00,1677378486.001641,34.25690211335034,-118.594901570787,299.5616,0,1.722925,11.59999118921952,180,1.626102235262777,6.441789535894399,-9999,41370.596612,-1.130783081054688,0.3628387451171875,-0.104827880859375,41370.549477,-2.101007346226601,-1.069743632713278,-0.7720640375104014,0.5970295667648315,0.4307407736778259,-0.3251402378082275,-0.1390543580055237,-0.3132466077804565,0.1423898935317993,XArbitraryZVertical,-0.5707688970316016,0.04630806337732957,-0.5961446506157605,0.5627522313207474,-0.6284016966819763,0.6976155638694763,-0.3441568613052368,0,0,0,-1,-1,41358.88355266667,walking,2,2023-02-25T18:27:54.828-08:00,2023-02-23T12:03:25.234-08:00,5104,1.557456,0.7858028,1.557423,4031.516,6,4,2023-02-25T18:27:57.369-08:00,699071285.0562788,0,84.84,97.67263,1,0.7
2023-02-25T18:28:06.578-08:00,1677378486.001641,34.25690211335034,-118.594901570787,299.5616,0,1.722925,11.59999118921952,180,1.626102235262777,6.441789535894399,-9999,41370.630127,-0.9219207763671875,0.294586181640625,-0.10321044921875,41370.609041,-2.089335701940335,-1.046198721022688,-0.7001612468769332,0.6580589413642883,0.3653729557991028,-1.595823884010315,-0.477808952331543,-0.2941823601722717,0.2715344429016113,XArbitraryZVertical,-0.5550067425699459,0.02126728590074661,-0.6176360095436249,0.5568131670068671,-0.6619004607200623,0.644340991973877,-0.3830304443836212,0,0,0,-1,-1,41358.88355266667,walking,2,2023-02-25T18:27:54.828-08:00,2023-02-23T12:03:25.234-08:00,5104,1.557456,0.7858028,1.557423,4031.516,6,4,2023-02-25T18:27:57.369-08:00,699071285.0562788,0,84.84,97.67263,1,0.7
2023-02-25T18:28:06.612-08:00,1677378486.001641,34.25690211335034,-118.594901570787,299.5616,0,1.722925,11.59999118921952,180,1.626102235262777,6.441789535894399,-9999,41370.663642,-0.8843994140625,0.296173095703125,-0.11492919921875,41370.609041,-2.089335701940335,-1.046198721022688,-0.7001612468769332,0.6580589413642883,0.3653729557991028,-1.595823884010315,-0.477808952331543,-0.2941823601722717,0.2715344429016113,XArbitraryZVertical,-0.5550067425699459,0.02126728590074661,-0.6176360095436249,0.5568131670068671,-0.6619004607200623,0.644340991973877,-0.3830304443836212,0,0,0,-1,-1,41358.88355266667,walking,2,2023-02-25T18:27:54.828-08:00,2023-02-23T12:03:25.234-08:00,5104,1.557456,0.7858028,1.557423,4031.516,6,4,2023-02-25T18:27:57.369-08:00,699071285.0562788,0,84.84,97.67263,1,0.7
2023-02-25T18:28:06.646-08:00,1677378486.001641,34.25690211335034,-118.594901570787,299.5616,0,1.722925,11.59999118921952,180,1.626102235262777,6.441789535894399,-9999,41370.697157,-1.1778564453125,0.425048828125,-0.2969512939453125,41370.668605,-2.154981025689277,-1.075726364538473,-0.5913938113377055,-0.4072780907154083,-0.4463796019554138,-2.320805311203003,-0.186363697052002,-0.2531821131706238,0.2644311487674713,XArbitraryZVertical,-0.550146973412164,-0.01164336118267834,-0.6528891393081002,0.5205175457237639,-0.7304911017417908,0.5575186610221863,-0.3944054841995239,0,0,0,-1,-1,41358.88355266667,walking,2,2023-02-25T18:27:54.828-08:00,2023-02-23T12:03:25.234-08:00,5104,1.557456,0.7858028,1.557423,4031.516,6,4,2023-02-25T18:27:57.369-08:00,699071285.0562788,0,84.84,97.67263,1,0.7
2023-02-25T18:28:06.677-08:00,1677378486.001641,34.25690211335034,-118.594901570787,299.5616,0,1.722925,11.59999118921952,180,1.626102235262777,6.441789535894399,-9999,41370.730632,-1.070068359375,0.581695556640625,-0.390167236328125,41370.72817,-2.255833577603479,-1.165100226019933,-0.4567083240209555,0.05394713580608368,-0.6313243508338928,-2.980392217636108,-0.2745410799980164,0.1252879500389099,-0.03963509202003479,XArbitraryZVertical,-0.5651835453450478,-0.05884574312363611,-0.6815389262343833,0.4610958034348102,-0.8246562480926514,0.4409961998462677,-0.3542094826698303,0,0,0,-1,-1,41358.88355266667,walking,2,2023-02-25T18:27:54.828-08:00,2023-02-23T12:03:25.234-08:00,5104,1.557456,0.7858028,1.557423,4031.516,6,4,2023-02-25T18:27:57.369-08:00,699071285.0562788,0,84.84,97.67263,1,0.7
2023-02-25T18:28:06.711-08:00,1677378486.001641,34.25690211335034,-118.594901570787,299.5616,0,1.722925,11.59999118921952,180,1.626102235262777,6.441789535894399,-9999,41370.764147,-0.8897247314453125,0.60870361328125,-0.3102264404296875,41370.72817,-2.255833577603479,-1.165100226019933,-0.4567083240209555,0.05394713580608368,-0.6313243508338928,-2.980392217636108,-0.2745410799980164,0.1252879500389099,-0.03963509202003479,XArbitraryZVertical,-0.5651835453450478,-0.05884574312363611,-0.6815389262343833,0.4610958034348102,-0.8246562480926514,0.4409961998462677,-0.3542094826698303,0,0,0,-1,-1,41358.88355266667,walking,2,2023-02-25T18:27:54.828-08:00,2023-02-23T12:03:25.234-08:00,5104,1.557456,0.7858028,1.557423,4031.516,6,4,2023-02-25T18:27:57.369-08:00,699071285.0562788,0,84.84,97.67263,1,0.7
2023-02-25T18:28:06.746-08:00,1677378486.001641,34.25690211335034,-118.594901570787,299.5616,0,1.722925,11.59999118921952,180,1.626102235262777,6.441789535894399,-9999,41370.797662,-0.751678466796875,0.531402587890625,-0.331024169921875,41370.78773400001,-2.276006919611862,-1.217327416841671,-0.2850194783502546,1.416416764259338,-0.8126289248466492,-2.418946027755737,0.1216109395027161,0.2715887427330017,0.01952135562896729,XArbitraryZVertical,-0.5626613272672787,-0.1315965549315589,-0.7031600344332474,0.414319411577596,-0.9003279209136963,0.2811761498451233,-0.33218914270401,0,0,0,-1,-1,41358.88355266667,walking,2,2023-02-25T18:27:54.828-08:00,2023-02-23T12:03:25.234-08:00,5104,1.557456,0.7858028,1.557423,4031.516,6,4,2023-02-25T18:27:57.369-08:00,699071285.0562788,0,84.84,97.67263,1,0.7
2023-02-25T18:28:06.780-08:00,1677378486.001641,34.25690211335034,-118.594901570787,299.5616,0,1.722925,11.59999118921952,180,1.626102235262777,6.441789535894399,-9999,41370.831176,-0.712066650390625,0.5321502685546875,-0.376708984375,41370.78773400001,-2.276006919611862,-1.217327416841671,-0.2850194783502546,1.416416764259338,-0.8126289248466492,-2.418946027755737,0.1216109395027161,0.2715887427330017,0.01952135562896729,XArbitraryZVertical,-0.5626613272672787,-0.1315965549315589,-0.7031600344332474,0.414319411577596,-0.9003279209136963,0.2811761498451233,-0.33218914270401,0,0,0,-1,-1,41358.88355266667,walking,2,2023-02-25T18:27:54.828-08:00,2023-02-23T12:03:25.234-08:00,5104,1.557456,0.7858028,1.557423,4031.516,6,4,2023-02-25T18:27:57.369-08:00,699071285.0562788,0,84.84,97.67263,1,0.7
2023-02-25T18:28:06.810-08:00,1677378486.001641,34.25690211335034,-118.594901570787,299.5616,0,1.722925,11.59999118921952,180,1.626102235262777,6.441789535894399,-9999,41370.864652,-0.6533966064453125,0.5373992919921875,-0.38116455078125,41370.847298,-2.231858492470315,-1.258402895779552,-0.1492321569038959,1.258983135223389,-0.7779252529144287,-1.429049253463745,0.2641137838363647,0.3823727965354919,-0.06340363621711731,XArbitraryZVertical,-0.5536690354549952,-0.2036909694963329,-0.7049939114757758,0.3936292497612029,-0.9410240650177002,0.1486788690090179,-0.3039211630821228,0,0,0,-1,-1,41358.88355266667,walking,2,2023-02-25T18:27:54.828-08:00,2023-02-23T12:03:25.234-08:00,5104,1.557456,0.7858028,1.557423,4031.516,6,4,2023-02-25T18:27:57.369-08:00,699071285.0562788,0,84.84,97.67263,1,0.7
2023-02-25T18:28:06.846-08:00,1677378486.001641,34.25690211335034,-118.594901570787,299.5616,0,1.722925,11.59999118921952,180,1.626102235262777,6.441789535894399,-9999,41370.89816716667,-0.702484130859375,0.5437164306640625,-0.3860931396484375,41370.847298,-2.231858492470315,-1.258402895779552,-0.1492321569038959,1.258983135223389,-0.7779252529144287,-1.429049253463745,0.2641137838363647,0.3823727965354919,-0.06340363621711731,XArbitraryZVertical,-0.5536690354549952,-0.2036909694963329,-0.7049939114757758,0.3936292497612029,-0.9410240650177002,0.1486788690090179,-0.3039211630821228,0,0,0,-1,-1,41358.88355266667,walking,2,2023-02-25T18:27:54.828-08:00,2023-02-23T12:03:25.234-08:00,5104,1.557456,0.7858028,1.557423,4031.516,6,4,2023-02-25T18:27:57.369-08:00,699071285.0562788,0,84.84,97.67263,1,0.7
2023-02-25T18:28:06.880-08:00,1677378486.001641,34.25690211335034,-118.594901570787,299.5616,0,1.722925,11.59999118921952,180,1.626102235262777,6.441789535894399,-9999,41370.93168216667,-0.7787628173828125,0.5861663818359375,-0.4107666015625,41370.90686416667,-2.182950699462655,-1.29741810329521,-0.07515181381630663,1.080948710441589,-0.6606209874153137,-0.5346576571464539,0.2436701059341431,0.4706189930438995,-0.1163048148155212,XArbitraryZVertical,-0.5495018772405842,-0.2518647256618681,-0.6960982026948762,0.3873747086156762,-0.9601466059684753,0.07508109509944916,-0.269223690032959,0,0,0,-1,-1,41358.88355266667,walking,2,2023-02-25T18:27:54.828-08:00,2023-02-23T12:03:25.234-08:00,5104,1.557456,0.7858028,1.557423,4031.516,6,4,2023-02-25T18:27:57.369-08:00,699071285.0562788,0,84.84,97.67263,1,0.7
2023-02-25T18:28:06.915-08:00,1677378486.001641,34.25690211335034,-118.594901570787,299.5616,0,1.722925,11.59999118921952,180,1.626102235262777,6.441789535894399,-9999,41370.96519716667,-0.880401611328125,0.6081695556640625,-0.43450927734375,41370.90686416667,-2.182950699462655,-1.29741810329521,-0.07515181381630663,1.080948710441589,-0.6606209874153137,-0.5346576571464539,0.2436701059341431,0.4706189930438995,-0.1163048148155212,XArbitraryZVertical,-0.5495018772405842,-0.2518647256618681,-0.6960982026948762,0.3873747086156762,-0.9601466059684753,0.07508109509944916,-0.269223690032959,0,0,0,-1,-1,41358.88355266667,walking,2,2023-02-25T18:27:54.828-08:00,2023-02-23T12:03:25.234-08:00,5104,1.557456,0.7858028,1.557423,4031.516,6,4,2023-02-25T18:27:57.369-08:00,699071285.0562788,0,84.84,97.67263,1,0.7
2023-02-25T18:28:06.945-08:00,1677378486.001641,34.25690211335034,-118.594901570787,299.5616,0,1.722925,11.59999118921952,180,1.626102235262777,6.441789535894399,-9999,41370.99867216667,-0.8872833251953125,0.5262603759765625,-0.3708953857421875,41370.96642816667,-2.115475765534059,-1.327618469948176,-0.05005755409817936,1.348195552825928,-0.4683251082897186,0.3089525699615479,0.08896028995513916,0.5581329464912415,-0.1940227001905441,XArbitraryZVertical,-0.546301744148776,-0.2851510659397472,-0.6784554458831381,0.3999266368915531,-0.9693617820739746,0.05003665015101433,-0.2404865473508835,0,0,0,-1,-1,41358.88355266667,walking,2,2023-02-25T18:27:54.828-08:00,2023-02-23T12:03:25.234-08:00,5104,1.557456,0.7858028,1.557423,4031.516,6,4,2023-02-25T18:27:57.369-08:00,699071285.0562788,0,84.84,97.67263,1,0.7
2023-02-25T18:28:06.979-08:00,1677378486.001641,34.25690211335034,-118.594901570787,299.5616,0,1.722925,11.59999118921952,180,1.626102235262777,6.441789535894399,-9999,41371.03218716667,-0.943878173828125,0.4953460693359375,-0.3494110107421875,41371.02599216667,-2.033904963645922,-1.344672923620169,-0.08204786977918772,1.022947192192078,-0.3031891286373138,1.364315152168274,0.04978621006011963,0.4110709130764008,-0.1270167529582977,XArbitraryZVertical,-0.5461411397687632,-0.3000105419230106,-0.6514170142959882,0.432873257098402,-0.9712643623352051,0.08195584267377853,-0.2234470546245575,0,0,0,-1,-1,41358.88355266667,walking,2,2023-02-25T18:27:54.828-08:00,2023-02-23T12:03:25.234-08:00,5104,1.557456,0.7858028,1.557423,4031.516,6,4,2023-02-25T18:27:57.369-08:00,699071285.0562788,0,84.84,97.67263,1,0.7
2023-02-25T18:28:07.014-08:00,1677378486.001641,34.25690211335034,-118.594901570787,299.5616,0,1.722925,11.59999118921952,180,1.626102235262777,6.441789535894399,-9999,41371.06570216667,-1.163284301757812,0.51239013671875,-0.34649658203125,41371.02599216667,-2.033904963645922,-1.344672923620169,-0.08204786977918772,1.022947192192078,-0.3031891286373138,1.364315152168274,0.04978621006011963,0.4110709130764008,-0.1270167529582977,XArbitraryZVertical,-0.5461411397687632,-0.3000105419230106,-0.6514170142959882,0.432873257098402,-0.9712643623352051,0.08195584267377853,-0.2234470546245575,0,0,0,-1,-1,41358.88355266667,walking,2,2023-02-25T18:27:54.828-08:00,2023-02-23T12:03:25.234-08:00,5104,1.557456,0.7858028,1.557423,4031.516,6,4,2023-02-25T18:27:57.369-08:00,699071285.0562788,0,84.84,97.67263,1,0.7
2023-02-25T18:28:07.048-08:00,1677378486.001641,34.25690211335034,-118.594901570787,299.5616,0,1.722925,11.59999118921952,180,1.626102235262777,6.441789535894399,-9999,41371.09921716667,-1.394989013671875,0.505401611328125,-0.365692138671875,41371.08555716667,-1.953341670020099,-1.356957392316062,-0.1753854044111501,1.045612573623657,-0.3379399180412292,2.150249719619751,-0.370561957359314,0.3522915244102478,-0.151592418551445,XArbitraryZVertical,-0.5562310699421564,-0.2934761793807815,-0.6118703273219057,0.4796804811161074,-0.9622321724891663,0.1744876354932785,-0.2089574635028839,0,0,0,-1,-1,41358.88355266667,walking,2,2023-02-25T18:27:54.828-08:00,2023-02-23T12:03:25.234-08:00,5104,1.557456,0.7858028,1.557423,4031.516,6,4,2023-02-25T18:27:57.369-08:00,699071285.0562788,0,84.84,97.67263,1,0.7
2023-02-25T18:28:07.078-08:00,1677378486.001641,34.25690211335034,-118.594901570787,299.5616,0,1.722925,11.59999118921952,180,1.626102235262777,6.441789535894399,-9999,41371.13269216667,-1.182144165039062,0.4159698486328125,-0.31884765625,41371.08555716667,-1.953341670020099,-1.356957392316062,-0.1753854044111501,1.045612573623657,-0.3379399180412292,2.150249719619751,-0.370561957359314,0.3522915244102478,-0.151592418551445,XArbitraryZVertical,-0.5562310699421564,-0.2934761793807815,-0.6118703273219057,0.4796804811161074,-0.9622321724891663,0.1744876354932785,-0.2089574635028839,0,0,0,-1,-1,41358.88355266667,walking,2,2023-02-25T18:27:54.828-08:00,2023-02-23T12:03:25.234-08:00,5104,1.557456,0.7858028,1.557423,4031.516,6,4,2023-02-25T18:27:57.369-08:00,699071285.0562788,0,84.84,97.67263,1,0.7
2023-02-25T18:28:07.114-08:00,1677378486.001641,34.25690211335034,-118.594901570787,299.5616,0,1.722925,11.59999118921952,180,1.626102235262777,6.441789535894399,-9999,41371.16620716667,-1.172805786132812,0.377044677734375,-0.2580108642578125,41371.14512116667,-1.861911580145124,-1.330038529972774,-0.295752768957945,0.8324680328369141,0.3317098021507263,2.517685651779175,-0.2154468297958374,0.1027050316333771,-0.07364088296890259,XArbitraryZVertical,-0.5588335796298354,-0.2714071704894268,-0.5700742205303085,0.5376417084277585,-0.9289928674697876,0.2914600074291229,-0.2280863523483276,0,0,0,-1,-1,41358.88355266667,walking,2,2023-02-25T18:27:54.828-08:00,2023-02-23T12:03:25.234-08:00,5104,1.557456,0.7858028,1.557423,4031.516,6,4,2023-02-25T18:27:57.369-08:00,699071285.0562788,0,84.84,97.67263,1,0.7
2023-02-25T18:28:07.148-08:00,1677378486.001641,34.25690211335034,-118.594901570787,299.5616,0,1.722925,11.59999118921952,180,1.626102235262777,6.441789535894399,-9999,41371.19972216667,-1.219970703125,0.388916015625,-0.2017669677734375,41371.14512116667,-1.861911580145124,-1.330038529972774,-0.295752768957945,0.8324680328369141,0.3317098021507263,2.517685651779175,-0.2154468297958374,0.1027050316333771,-0.07364088296890259,XArbitraryZVertical,-0.5588335796298354,-0.2714071704894268,-0.5700742205303085,0.5376417084277585,-0.9289928674697876,0.2914600074291229,-0.2280863523483276,0,0,0,-1,-1,41358.88355266667,walking,2,2023-02-25T18:27:54.828-08:00,2023-02-23T12:03:25.234-08:00,5104,1.557456,0.7858028,1.557423,4031.516,6,4,2023-02-25T18:27:57.369-08:00,699071285.0562788,0,84.84,97.67263,1,0.7
2023-02-25T18:28:07.182-08:00,1677378486.001641,34.25690211335034,-118.594901570787,299.5616,0,1.722925,11.59999118921952,180,1.626102235262777,6.441789535894399,-9999,41371.23323716667,-1.272918701171875,0.4000701904296875,-0.199737548828125,41371.20468516667,-1.781011657825592,-1.275652876594046,-0.4338142318211386,0.4685136675834656,0.5874992609024048,2.520905733108521,-0.3579088449478149,-0.03012174367904663,0.06549233198165894,XArbitraryZVertical,-0.5608068718644421,-0.2313638123034444,-0.52930730527878,0.5931274322352147,-0.8681347966194153,0.4203347563743591,-0.2639328837394714,0,0,0,-1,-1,41358.88355266667,walking,2,2023-02-25T18:27:54.828-08:00,2023-02-23T12:03:25.234-08:00,5104,1.557456,0.7858028,1.557423,4031.516,6,4,2023-02-25T18:27:57.369-08:00,699071285.0562788,0,84.84,97.67263,1,0.7
2023-02-25T18:28:07.213-08:00,1677378486.001641,34.25690211335034,-118.594901570787,299.5616,0,1.722925,11.59999118921952,180,1.626102235262777,6.441789535894399,-9999,41371.26671216667,-1.183303833007812,0.307373046875,-0.1397857666015625,41371.20468516667,-1.781011657825592,-1.275652876594046,-0.4338142318211386,0.4685136675834656,0.5874992609024048,2.520905733108521,-0.3579088449478149,-0.03012174367904663,0.06549233198165894,XArbitraryZVertical,-0.5608068718644421,-0.2313638123034444,-0.52930730527878,0.5931274322352147,-0.8681347966194153,0.4203347563743591,-0.2639328837394714,0,0,0,-1,-1,41358.88355266667,walking,2,2023-02-25T18:27:54.828-08:00,2023-02-23T12:03:25.234-08:00,5104,1.557456,0.7858028,1.557423,4031.516,6,4,2023-02-25T18:27:57.369-08:00,699071285.0562788,0,84.84,97.67263,1,0.7
2023-02-25T18:28:07.247-08:00,1677378486.001641,34.25690211335034,-118.594901570787,299.5616,0,1.722925,11.59999118921952,180,1.626102235262777,6.441789535894399,-9999,41371.30022716667,-1.022003173828125,0.2211151123046875,-0.115325927734375,41371.26425016667,-1.696122209516504,-1.190648688731596,-0.5568663559522383,0.4599348306655884,0.9713299870491028,2.226286888122559,-0.4132572412490845,-0.20308917760849,0.1676881611347198,XArbitraryZVertical,-0.5549059332779195,-0.1859600765852357,-0.4951119063569162,0.6421545090718372,-0.788311243057251,0.5285285711288452,-0.3149965107440948,0,0,0,-1,-1,41358.88355266667,walking,2,2023-02-25T18:27:54.828-08:00,2023-02-23T12:03:25.234-08:00,5104,1.557456,0.7858028,1.557423,4031.516,6,4,2023-02-25T18:27:57.369-08:00,699071285.0562788,0,84.84,97.67263,1,0.7
2023-02-25T18:28:07.282-08:00,1677378486.001641,34.25690211335034,-118.594901570787,299.5616,0,1.722925,11.59999118921952,180,1.626102235262777,6.441789535894399,-9999,41371.33374116667,-0.764007568359375,0.237152099609375,-0.1587066650390625,41371.32381416667,-1.640994347469011,-1.097269158975533,-0.6677524600379015,-0.7245544195175171,1.042307734489441,1.705647110939026,-0.1609877347946167,-0.413641095161438,0.212831974029541,XArbitraryZVertical,-0.5510758766883039,-0.131435182582228,-0.4731310942345077,0.6746755978037281,-0.6988145112991333,0.6192227602005005,-0.3580803275108337,0,0,0,-1,-1,41358.88355266667,walking,2,2023-02-25T18:27:54.828-08:00,2023-02-23T12:03:25.234-08:00,5104,1.557456,0.7858028,1.557423,4031.516,6,4,2023-02-25T18:27:57.369-08:00,699071285.0562788,0,84.84,97.67263,1,0.7
2023-02-25T18:28:07.317-08:00,1677378486.001641,34.25690211335034,-118.594901570787,299.5616,0,1.722925,11.59999118921952,180,1.626102235262777,6.441789535894399,-9999,41371.36725616667,-0.6903076171875,0.2318572998046875,-0.1715240478515625,41371.32381416667,-1.640994347469011,-1.097269158975533,-0.6677524600379015,-0.7245544195175171,1.042307734489441,1.705647110939026,-0.1609877347946167,-0.413641095161438,0.212831974029541,XArbitraryZVertical,-0.5510758766883039,-0.131435182582228,-0.4731310942345077,0.6746755978037281,-0.6988145112991333,0.6192227602005005,-0.3580803275108337,0,0,0,-1,-1,41358.88355266667,walking,2,2023-02-25T18:27:54.828-08:00,2023-02-23T12:03:25.234-08:00,5104,1.557456,0.7858028,1.557423,4031.516,6,4,2023-02-25T18:27:57.369-08:00,699071285.0562788,0,84.84,97.67263,1,0.7
2023-02-25T18:28:07.346-08:00,1677378486.001641,34.25690211335034,-118.594901570787,299.5616,0,1.722925,11.59999118921952,180,1.626102235262777,6.441789535894399,-9999,41371.40073116667,-0.6385498046875,0.3204803466796875,-0.2176055908203125,41371.38337816667,-1.651381660844554,-1.063996089010285,-0.7663953115999464,-0.9044963717460632,0.4426376223564148,0.9613795280456543,-0.03377461433410645,-0.4187473654747009,0.1589571535587311,XArbitraryZVertical,-0.5642785926796892,-0.08216640851616691,-0.458896185602247,0.6813607587997859,-0.629860520362854,0.6935428977012634,-0.3496766984462738,0,0,0,-1,-1,41358.88355266667,walking,2,2023-02-25T18:27:54.828-08:00,2023-02-23T12:03:25.234-08:00,5104,1.557456,0.7858028,1.557423,4031.516,6,4,2023-02-25T18:27:57.369-08:00,699071285.0562788,0,84.84,97.67263,1,0.7
2023-02-25T18:28:07.382-08:00,1677378487.001672,34.2569046566464,-118.5949038484506,299.2826,0,1.795702,11.59998951061873,180,1.571335289870708,6.64450334219279,-9999,41371.43424616667,-0.570068359375,0.3637237548828125,-0.23675537109375,41371.38337816667,-1.651381660844554,-1.063996089010285,-0.7663953115999464,-0.9044963717460632,0.4426376223564148,0.9613795280456543,-0.03377461433410645,-0.4187473654747009,0.1589571535587311,XArbitraryZVertical,-0.5642785926796892,-0.08216640851616691,-0.458896185602247,0.6813607587997859,-0.629860520362854,0.6935428977012634,-0.3496766984462738,0,0,0,-1,-1,41358.88355266667,walking,2,2023-02-25T18:27:54.828-08:00,2023-02-23T12:03:25.234-08:00,5104,1.557456,0.7858028,1.557423,4031.516,6,4,2023-02-25T18:27:57.369-08:00,699071285.0562788,0,84.84,97.67263,1,0.7
2023-02-25T18:28:07.416-08:00,1677378487.001672,34.2569046566464,-118.5949038484506,299.2826,0,1.795702,11.59998951061873,180,1.571335289870708,6.64450334219279,-9999,41371.46776116667,-0.60089111328125,0.3904266357421875,-0.2741241455078125,41371.44294316667,-1.668677326521104,-1.059111964090538,-0.8073916368674158,-0.04428842291235924,0.1153503358364105,0.1548395752906799,0.03545057773590088,-0.3547494411468506,0.1018248796463013,XArbitraryZVertical,-0.5718645204048222,-0.06085849561223694,-0.4547017775036123,0.6800834417607576,-0.6028333306312561,0.7224862575531006,-0.338534414768219,0,0,0,-1,-1,41358.88355266667,walking,2,2023-02-25T18:27:54.828-08:00,2023-02-23T12:03:25.234-08:00,5104,1.557456,0.7858028,1.557423,4031.516,6,4,2023-02-25T18:27:57.369-08:00,699071285.0562788,0,84.84,97.67263,1,0.7
2023-02-25T18:28:07.451-08:00,1677378487.001672,34.2569046566464,-118.5949038484506,299.2826,0,1.795702,11.59998951061873,180,1.571335289870708,6.64450334219279,-9999,41371.50127616667,-0.6431884765625,0.3973541259765625,-0.289093017578125,41371.44294316667,-1.668677326521104,-1.059111964090538,-0.8073916368674158,-0.04428842291235924,0.1153503358364105,0.1548395752906799,0.03545057773590088,-0.3547494411468506,0.1018248796463013,XArbitraryZVertical,-0.5718645204048222,-0.06085849561223694,-0.4547017775036123,0.6800834417607576,-0.6028333306312561,0.7224862575531006,-0.338534414768219,0,0,0,-1,-1,41358.88355266667,walking,2,2023-02-25T18:27:54.828-08:00,2023-02-23T12:03:25.234-08:00,5104,1.557456,0.7858028,1.557423,4031.516,6,4,2023-02-25T18:27:57.369-08:00,699071285.0562788,0,84.84,97.67263,1,0.7
2023-02-25T18:28:07.481-08:00,1677378487.001672,34.2569046566464,-118.5949038484506,299.2826,0,1.795702,11.59998951061873,180,1.571335289870708,6.64450334219279,-9999,41371.53475116667,-0.654266357421875,0.4150543212890625,-0.30438232421875,41371.50250716667,-1.654877491595681,-1.04611702405256,-0.7994961016331651,0.2729693949222565,0.07039271295070648,-0.1918482184410095,-0.0398867130279541,-0.3196508288383484,0.06009316444396973,XArbitraryZVertical,-0.5669325395618636,-0.06320153981373866,-0.4559146029439188,0.6831799960944733,-0.6033017039299011,0.7170049548149109,-0.34918612241745,0,0,0,-1,-1,41358.88355266667,walking,2,2023-02-25T18:27:54.828-08:00,2023-02-23T12:03:25.234-08:00,5104,1.557456,0.7858028,1.557423,4031.516,6,4,2023-02-25T18:27:57.369-08:00,699071285.0562788,0,84.84,97.67263,1,0.7
2023-02-25T18:28:07.515-08:00,1677378487.001672,34.2569046566464,-118.5949038484506,299.2826,0,1.795702,11.59998951061873,180,1.571335289870708,6.64450334219279,-9999,41371.56826616667,-0.6816558837890625,0.5065460205078125,-0.3347625732421875,41371.56207116667,-1.669469848204186,-1.047153657505867,-0.7827701007159058,-0.3167272210121155,0.2568430006504059,-0.4694855511188507,-0.06322097778320312,-0.2132416963577271,0.02703943848609924,XArbitraryZVertical,-0.5643244615140464,-0.06545065700954286,-0.4652516331965961,0.6788187672842247,-0.6139640212059021,0.7052460312843323,-0.3545082211494446,0,0,0,-1,-1,41358.88355266667,walking,2,2023-02-25T18:27:54.828-08:00,2023-02-23T12:03:25.234-08:00,5104,1.557456,0.7858028,1.557423,4031.516,6,4,2023-02-25T18:27:57.369-08:00,699071285.0562788,0,84.84,97.67263,1,0.7
2023-02-25T18:28:07.550-08:00,1677378487.001672,34.2569046566464,-118.5949038484506,299.2826,0,1.795702,11.59998951061873,180,1.571335289870708,6.64450334219279,-9999,41371.60178116667,-0.63677978515625,0.5264739990234375,-0.3460540771484375,41371.56207116667,-1.669469848204186,-1.047153657505867,-0.7827701007159058,-0.3167272210121155,0.2568430006504059,-0.4694855511188507,-0.06322097778320312,-0.2132416963577271,0.02703943848609924,XArbitraryZVertical,-0.5643244615140464,-0.06545065700954286,-0.4652516331965961,0.6788187672842247,-0.6139640212059021,0.7052460312843323,-0.3545082211494446,0,0,0,-1,-1,41358.88355266667,walking,2,2023-02-25T18:27:54.828-08:00,2023-02-23T12:03:25.234-08:00,5104,1.557456,0.7858028,1.557423,4031.516,6,4,2023-02-25T18:27:57.369-08:00,699071285.0562788,0,84.84,97.67263,1,0.7
2023-02-25T18:28:07.585-08:00,1677378487.001672,34.2569046566464,-118.5949038484506,299.2826,0,1.795702,11.59998951061873,180,1.571335289870708,6.64450334219279,-9999,41371.63529616667,-0.614410400390625,0.5769500732421875,-0.3298797607421875,41371.62163516667,-1.733438695750714,-1.07099010268128,-0.7652077231398637,-0.725071132183075,0.4169130921363831,-0.7796254754066467,0.01991516351699829,-0.1310108304023743,0.003555417060852051,XArbitraryZVertical,-0.5686512418646559,-0.06170114221376238,-0.4847983966767754,0.6616639564513314,-0.6330132484436035,0.6926868557929993,-0.3456574678421021,0,0,0,-1,-1,41358.88355266667,walking,2,2023-02-25T18:27:54.828-08:00,2023-02-23T12:03:25.234-08:00,5104,1.557456,0.7858028,1.557423,4031.516,6,4,2023-02-25T18:27:57.369-08:00,699071285.0562788,0,84.84,97.67263,1,0.7
2023-02-25T18:28:07.615-08:00,1677378487.001672,34.2569046566464,-118.5949038484506,299.2826,0,1.795702,11.59998951061873,180,1.571335289870708,6.64450334219279,-9999,41371.66877116667,-0.6348876953125,0.58056640625,-0.2780609130859375,41371.62163516667,-1.733438695750714,-1.07099010268128,-0.7652077231398637,-0.725071132183075,0.4169130921363831,-0.7796254754066467,0.01991516351699829,-0.1310108304023743,0.003555417060852051,XArbitraryZVertical,-0.5686512418646559,-0.06170114221376238,-0.4847983966767754,0.6616639564513314,-0.6330132484436035,0.6926868557929993,-0.3456574678421021,0,0,0,-1,-1,41358.88355266667,walking,2,2023-02-25T18:27:54.828-08:00,2023-02-23T12:03:25.234-08:00,5104,1.557456,0,0,4031.516,6,4,2023-02-25T18:28:07.535-08:00,699071287.6003374,0,84.77,97.67144,1,0.7
2023-02-25T18:28:07.650-08:00,1677378487.001672,34.2569046566464,-118.5949038484506,299.2826,0,1.795702,11.59998951061873,180,1.571335289870708,6.64450334219279,-9999,41371.70228616667,-0.688201904296875,0.6058807373046875,-0.219512939453125,41371.68120016667,-1.824218956687156,-1.109743784644893,-0.738714240364387,-0.7662812471389771,0.3598183989524841,-1.086766362190247,0.01170063018798828,-0.08247178792953491,0.07513925433158875,XArbitraryZVertical,-0.5763396579084898,-0.05805953576096778,-0.5104068192507519,0.6355677744564632,-0.6621369123458862,0.6733378767967224,-0.328923374414444,0,0,0,-1,-1,41371.59062216667,walking,2,2023-02-25T18:28:07.535-08:00,2023-02-23T12:03:25.234-08:00,5104,1.557456,0,0,4031.516,6,4,2023-02-25T18:28:07.535-08:00,699071287.6003374,0,84.77,97.67144,1,0.7
2023-02-25T18:28:07.684-08:00,1677378487.001672,34.2569046566464,-118.5949038484506,299.2826,0,1.795702,11.59998951061873,180,1.571335289870708,6.64450334219279,-9999,41371.73580016667,-0.8196868896484375,0.5746917724609375,-0.1800994873046875,41371.68120016667,-1.824218956687156,-1.109743784644893,-0.738714240364387,-0.7662812471389771,0.3598183989524841,-1.086766362190247,0.01170063018798828,-0.08247178792953491,0.07513925433158875,XArbitraryZVertical,-0.5763396579084898,-0.05805953576096778,-0.5104068192507519,0.6355677744564632,-0.6621369123458862,0.6733378767967224,-0.328923374414444,0,0,0,-1,-1,41371.59062216667,walking,2,2023-02-25T18:28:07.535-08:00,2023-02-23T12:03:25.234-08:00,5104,1.557456,0,0,4031.516,6,4,2023-02-25T18:28:07.535-08:00,699071287.6003374,0,84.77,97.67144,1,0.7
2023-02-25T18:28:07.719-08:00,1677378487.001672,34.2569046566464,-118.5949038484506,299.2826,0,1.795702,11.59998951061873,180,1.571335289870708,6.64450334219279,-9999,41371.76931516667,-0.9306793212890625,0.5594024658203125,-0.1842193603515625,41371.74076416667,-1.911013804763026,-1.153937909207826,-0.6819835432229824,-0.3839219510555267,0.0298900306224823,-1.602879762649536,-0.1266429424285889,-0.05910605192184448,0.1355995833873749,XArbitraryZVertical,-0.5815795436452306,-0.06784064943239798,-0.5397145997908591,0.6048728163948837,-0.7098438739776611,0.6303341388702393,-0.314325749874115,0,0,0,-1,-1,41371.59062216667,walking,2,2023-02-25T18:28:07.535-08:00,2023-02-23T12:03:25.234-08:00,5104,1.557456,0,0,4031.516,6,4,2023-02-25T18:28:07.535-08:00,699071287.6003374,0,84.77,97.67144,1,0.7
2023-02-25T18:28:07.749-08:00,1677378487.001672,34.2569046566464,-118.5949038484506,299.2826,0,1.795702,11.59998951061873,180,1.571335289870708,6.64450334219279,-9999,41371.80279016667,-0.9724578857421875,0.5579986572265625,-0.16015625,41371.74076416667,-1.911013804763026,-1.153937909207826,-0.6819835432229824,-0.3839219510555267,0.0298900306224823,-1.602879762649536,-0.1266429424285889,-0.05910605192184448,0.1355995833873749,XArbitraryZVertical,-0.5815795436452306,-0.06784064943239798,-0.5397145997908591,0.6048728163948837,-0.7098438739776611,0.6303341388702393,-0.314325749874115,0,0,0,-1,-1,41371.59062216667,walking,2,2023-02-25T18:28:07.535-08:00,2023-02-23T12:03:25.234-08:00,5104,1.557456,0,0,4031.516,6,4,2023-02-25T18:28:07.535-08:00,699071287.6003374,0,84.77,97.67144,1,0.7
2023-02-25T18:28:07.783-08:00,1677378487.001672,34.2569046566464,-118.5949038484506,299.2826,0,1.795702,11.59998951061873,180,1.571335289870708,6.64450334219279,-9999,41371.83630516667,-1.298233032226562,0.4641265869140625,-0.0652008056640625,41371.80032816667,-1.978500961089903,-1.196500715447454,-0.5767698185777831,0.04118094220757484,-0.2642534673213959,-2.282577276229858,-0.171710193157196,0.01992744207382202,0.1418893337249756,XArbitraryZVertical,-0.5802762730108483,-0.1002205073946032,-0.5739856908725662,0.5690129524397486,-0.780194103717804,0.545319139957428,-0.3064706027507782,0,0,0,-1,-1,41371.59062216667,walking,2,2023-02-25T18:28:07.535-08:00,2023-02-23T12:03:25.234-08:00,5104,1.557456,0,0,4031.516,6,4,2023-02-25T18:28:07.535-08:00,699071287.6003374,0,84.77,97.67144,1,0.7
2023-02-25T18:28:07.819-08:00,1677378487.001672,34.2569046566464,-118.5949038484506,299.2826,0,1.795702,11.59998951061873,180,1.571335289870708,6.64450334219279,-9999,41371.86982016667,-1.584152221679688,0.4278717041015625,0.026702880859375,41371.85989316667,-2.04887295305793,-1.260786181526593,-0.4327992945372403,-0.7405058145523071,-0.5804734230041504,-2.968868255615234,-0.6562613248825073,0.007008463144302368,0.2698595225811005,XArbitraryZVertical,-0.5820215693266997,-0.1509341787864622,-0.6083392063496205,0.5180666984732124,-0.8645210266113281,0.4194136261940002,-0.2769395411014557,0,0,0,-1,-1,41371.59062216667,walking,2,2023-02-25T18:28:07.535-08:00,2023-02-23T12:03:25.234-08:00,5104,1.557456,0,0,4031.516,6,4,2023-02-25T18:28:07.535-08:00,699071287.6003374,0,84.77,97.67144,1,0.7
2023-02-25T18:28:07.853-08:00,1677378487.001672,34.2569046566464,-118.5949038484506,299.2826,0,1.795702,11.59998951061873,180,1.571335289870708,6.64450334219279,-9999,41371.903335125,-1.528274536132812,0.46502685546875,-0.01361083984375,41371.85989316667,-2.04887295305793,-1.260786181526593,-0.4327992945372403,-0.7405058145523071,-0.5804734230041504,-2.968868255615234,-0.6562613248825073,0.007008463144302368,0.2698595225811005,XArbitraryZVertical,-0.5820215693266997,-0.1509341787864622,-0.6083392063496205,0.5180666984732124,-0.8645210266113281,0.4194136261940002,-0.2769395411014557,0,0,0,-1,-1,41371.59062216667,walking,2,2023-02-25T18:28:07.535-08:00,2023-02-23T12:03:25.234-08:00,5104,1.557456,0,0,4031.516,6,4,2023-02-25T18:28:07.535-08:00,699071287.6003374,0,84.77,97.67144,1,0.7
2023-02-25T18:28:07.883-08:00,1677378487.001672,34.2569046566464,-118.5949038484506,299.2826,0,1.795702,11.59998951061873,180,1.571335289870708,6.64450334219279,-9999,41371.936810125,-1.279266357421875,0.6657562255859375,-0.2981414794921875,41371.919457125,-2.206214746424996,-1.332344570177839,-0.274843950629975,-2.139969110488892,-0.1827023923397064,-3.617792367935181,-0.4795910716056824,0.2591666281223297,0.0757220983505249,XArbitraryZVertical,-0.594971395978551,-0.1798398236530005,-0.6569841184551954,0.4266596404867949,-0.9352343082427979,0.2713967561721802,-0.2273333519697189,0,0,0,-1,-1,41371.59062216667,walking,2,2023-02-25T18:28:07.535-08:00,2023-02-23T12:03:25.234-08:00,5104,1.557456,0,0,4031.516,6,4,2023-02-25T18:28:07.535-08:00,699071287.6003374,0,84.77,97.67144,1,0.7
2023-02-25T18:28:07.918-08:00,1677378487.001672,34.2569046566464,-118.5949038484506,299.2826,0,1.795702,11.59998951061873,180,1.571335289870708,6.64450334219279,-9999,41371.970325125,-1.004150390625,0.6749420166015625,-0.4499359130859375,41371.919457125,-2.206214746424996,-1.332344570177839,-0.274843950629975,-2.139969110488892,-0.1827023923397064,-3.617792367935181,-0.4795910716056824,0.2591666281223297,0.0757220983505249,XArbitraryZVertical,-0.594971395978551,-0.1798398236530005,-0.6569841184551954,0.4266596404867949,-0.9352343082427979,0.2713967561721802,-0.2273333519697189,0,0,0,-1,-1,41371.59062216667,walking,2,2023-02-25T18:28:07.535-08:00,2023-02-23T12:03:25.234-08:00,5104,1.557456,0,0,4031.516,6,4,2023-02-25T18:28:07.535-08:00,699071287.6003374,0,84.77,97.67144,1,0.7
2023-02-25T18:28:07.952-08:00,1677378487.001672,34.2569046566464,-118.5949038484506,299.2826,0,1.795702,11.59998951061873,180,1.571335289870708,6.64450334219279,-9999,41372.00384012501,-0.798492431640625,0.5930633544921875,-0.286895751953125,41371.979021125,-2.352883383077657,-1.373756209238386,-0.1098818706893017,-1.1486656665802,-0.1333489567041397,-2.757938146591187,0.04385840892791748,0.566745936870575,-0.1968620717525482,XArbitraryZVertical,-0.6008843154556782,-0.2040700668962155,-0.6994237309666154,0.3287852334416939,-0.9747359752655029,0.1096608862280846,-0.1945868879556656,0,0,0,-1,-1,41371.59062216667,walking,2,2023-02-25T18:28:07.535-08:00,2023-02-23T12:03:25.234-08:00,5104,1.557456,0,0,4031.516,6,4,2023-02-25T18:28:07.535-08:00,699071287.6003374,0,84.77,97.67144,1,0.7
2023-02-25T18:28:07.986-08:00,1677378487.001672,34.2569046566464,-118.5949038484506,299.2826,0,1.795702,11.59998951061873,180,1.571335289870708,6.64450334219279,-9999,41372.037355125,-0.7921905517578125,0.487640380859375,-0.2407073974609375,41371.979021125,-2.352883383077657,-1.373756209238386,-0.1098818706893017,-1.1486656665802,-0.1333489567041397,-2.757938146591187,0.04385840892791748,0.566745936870575,-0.1968620717525482,XArbitraryZVertical,-0.6008843154556782,-0.2040700668962155,-0.6994237309666154,0.3287852334416939,-0.9747359752655029,0.1096608862280846,-0.1945868879556656,0,0,0,-1,-1,41371.59062216667,walking,2,2023-02-25T18:28:07.535-08:00,2023-02-23T12:03:25.234-08:00,5104,1.557456,0,0,4031.516,6,4,2023-02-25T18:28:07.535-08:00,699071287.6003374,0,84.77,97.67144,1,0.7
2023-02-25T18:28:08.017-08:00,1677378487.001672,34.2569046566464,-118.5949038484506,299.2826,0,1.795702,11.59998951061873,180,1.571335289870708,6.64450334219279,-9999,41372.07083012501,-0.8851470947265625,0.4266357421875,-0.294586181640625,41372.038586125,-2.416704312854002,-1.383801755296365,-0.02035154784041667,-0.6986908912658691,-0.06230754405260086,-0.7356759309768677,0.1901734471321106,0.4672902226448059,-0.05483919382095337,XArbitraryZVertical,-0.5993002911335429,-0.2188722326121225,-0.7176687419723652,0.2790801769957931,-0.9823639988899231,0.0203501433134079,-0.1858682185411453,0,0,0,-1,-1,41371.59062216667,walking,2,2023-02-25T18:28:07.535-08:00,2023-02-23T12:03:25.234-08:00,5104,1.557456,0,0,4031.516,6,4,2023-02-25T18:28:07.535-08:00,699071287.6003374,0,84.77,97.67144,1,0.7
2023-02-25T18:28:08.051-08:00,1677378487.001672,34.2569046566464,-118.5949038484506,299.2826,0,1.795702,11.59998951061873,180,1.571335289870708,6.64450334219279,-9999,41372.104345125,-0.7441558837890625,0.38616943359375,-0.2819671630859375,41372.098150125,-2.498410511079076,-1.372138022906752,-0.02205969367349384,-2.172606229782104,0.5066118836402893,0.1740331053733826,0.2012088894844055,0.3624025285243988,-0.09102392196655273,XArbitraryZVertical,-0.6036841608775694,-0.1921258479738875,-0.7318222216911031,0.2511759078965105,-0.9800937175750732,0.02205790393054485,-0.1973061859607697,0,0,0,-1,-1,41371.59062216667,walking,2,2023-02-25T18:28:07.535-08:00,2023-02-23T12:03:25.234-08:00,5104,1.557456,0,0,4031.516,6,4,2023-02-25T18:28:07.535-08:00,699071287.6003374,0,84.77,97.67144,1,0.7
2023-02-25T18:28:08.086-08:00,1677378487.001672,34.2569046566464,-118.5949038484506,299.2826,0,1.795702,11.59998951061873,180,1.571335289870708,6.64450334219279,-9999,41372.137859125,-0.6117401123046875,0.435791015625,-0.2492218017578125,41372.098150125,-2.498410511079076,-1.372138022906752,-0.02205969367349384,-2.172606229782104,0.5066118836402893,0.1740331053733826,0.2012088894844055,0.3624025285243988,-0.09102392196655273,XArbitraryZVertical,-0.6036841608775694,-0.1921258479738875,-0.7318222216911031,0.2511759078965105,-0.9800937175750732,0.02205790393054485,-0.1973061859607697,0,0,0,-1,-1,41371.59062216667,walking,2,2023-02-25T18:28:07.535-08:00,2023-02-23T12:03:25.234-08:00,5104,1.557456,0,0,4031.516,6,4,2023-02-25T18:28:07.535-08:00,699071287.6003374,0,84.77,97.67144,1,0.7
2023-02-25T18:28:08.120-08:00,1677378487.001672,34.2569046566464,-118.5949038484506,299.2826,0,1.795702,11.59998951061873,180,1.571335289870708,6.64450334219279,-9999,41372.17137412501,-0.5606689453125,0.4645843505859375,-0.2294921875,41372.157714125,-2.638968575135129,-1.343168024671186,-0.07959706258895256,-2.480914115905762,0.6045160293579102,0.6810969710350037,0.3881730437278748,0.3725133240222931,-0.01860764622688293,XArbitraryZVertical,-0.6099491403956812,-0.1244406278753662,-0.7514888970685329,0.2184973479969146,-0.9711198806762695,0.07951303571462631,-0.2249531596899033,0,0,0,-1,-1,41371.59062216667,walking,2,2023-02-25T18:28:07.535-08:00,2023-02-23T12:03:25.234-08:00,5104,1.557456,0,0,4031.516,6,4,2023-02-25T18:28:07.535-08:00,699071287.6003374,0,84.77,97.67144,1,0.7
2023-02-25T18:28:08.150-08:00,1677378487.001672,34.2569046566464,-118.5949038484506,299.2826,0,1.795702,11.59998951061873,180,1.571335289870708,6.64450334219279,-9999,41372.204849125,-0.625,0.548004150390625,-0.2398681640625,41372.157714125,-2.638968575135129,-1.343168024671186,-0.07959706258895256,-2.480914115905762,0.6045160293579102,0.6810969710350037,0.3881730437278748,0.3725133240222931,-0.01860764622688293,XArbitraryZVertical,-0.6099491403956812,-0.1244406278753662,-0.7514888970685329,0.2184973479969146,-0.9711198806762695,0.07951303571462631,-0.2249531596899033,0,0,0,-1,-1,41371.59062216667,walking,2,2023-02-25T18:28:07.535-08:00,2023-02-23T12:03:25.234-08:00,5104,1.557456,0,0,4031.516,6,4,2023-02-25T18:28:07.535-08:00,699071287.6003374,0,84.77,97.67144,1,0.7
2023-02-25T18:28:08.186-08:00,1677378487.001672,34.2569046566464,-118.5949038484506,299.2826,0,1.795702,11.59998951061873,180,1.571335289870708,6.64450334219279,-9999,41372.23836412501,-0.7883758544921875,0.6238555908203125,-0.3164215087890625,41372.217278125,-2.732223971554134,-1.322427469093894,-0.1528475774702257,-0.930699348449707,0.4076665937900543,0.9295625686645508,0.2785706520080566,0.4280843734741211,-0.01090317964553833,XArbitraryZVertical,-0.6117495930124759,-0.06545074340121415,-0.7609868490856585,0.20585827755228,-0.9580139517784119,0.152253121137619,-0.2429572641849518,0,0,0,-1,-1,41371.59062216667,walking,2,2023-02-25T18:28:07.535-08:00,2023-02-23T12:03:25.234-08:00,5104,1.557456,0,0,4031.516,6,4,2023-02-25T18:28:07.535-08:00,699071287.6003374,0,84.77,97.67144,1,0.7
2023-02-25T18:28:08.220-08:00,1677378487.001672,34.2569046566464,-118.5949038484506,299.2826,0,1.795702,11.59998951061873,180,1.571335289870708,6.64450334219279,-9999,41372.271879125,-0.803375244140625,0.6105804443359375,-0.329986572265625,41372.217278125,-2.732223971554134,-1.322427469093894,-0.1528475774702257,-0.930699348449707,0.4076665937900543,0.9295625686645508,0.2785706520080566,0.4280843734741211,-0.01090317964553833,XArbitraryZVertical,-0.6117495930124759,-0.06545074340121415,-0.7609868490856585,0.20585827755228,-0.9580139517784119,0.152253121137619,-0.2429572641849518,0,0,0,-1,-1,41371.59062216667,walking,2,2023-02-25T18:28:07.535-08:00,2023-02-23T12:03:25.234-08:00,5104,1.557456,0,0,4031.516,6,4,2023-02-25T18:28:07.535-08:00,699071287.6003374,0,84.77,97.67144,1,0.7
2023-02-25T18:28:08.255-08:00,1677378487.001672,34.2569046566464,-118.5949038484506,299.2826,0,1.795702,11.59998951061873,180,1.571335289870708,6.64450334219279,-9999,41372.305394125,-0.7438201904296875,0.6552886962890625,-0.36956787109375,41372.276843125,-2.735310612487005,-1.300773771353873,-0.218244415814911,-0.04024647548794746,0.3544467985630035,1.262270331382751,0.1471718549728394,0.3915772438049316,-0.07784652709960938,XArbitraryZVertical,-0.6070025421532207,-0.03653952308129066,-0.7615452960906569,0.2241910061982857,-0.9409035444259644,0.2165160179138184,-0.2604255676269531,0,0,0,-1,-1,41371.59062216667,walking,2,2023-02-25T18:28:07.535-08:00,2023-02-23T12:03:25.234-08:00,5104,1.557456,0,0,4031.516,6,4,2023-02-25T18:28:07.535-08:00,699071287.6003374,0,84.77,97.67144,1,0.7
2023-02-25T18:28:08.285-08:00,1677378487.001672,34.2569046566464,-118.5949038484506,299.2826,0,1.795702,11.59998951061873,180,1.571335289870708,6.64450334219279,-9999,41372.338869125,-0.8172607421875,0.7971038818359375,-0.3767242431640625,41372.276843125,-2.735310612487005,-1.300773771353873,-0.218244415814911,-0.04024647548794746,0.3544467985630035,1.262270331382751,0.1471718549728394,0.3915772438049316,-0.07784652709960938,XArbitraryZVertical,-0.6070025421532207,-0.03653952308129066,-0.7615452960906569,0.2241910061982857,-0.9409035444259644,0.2165160179138184,-0.2604255676269531,0,0,0,-1,-1,41371.59062216667,walking,2,2023-02-25T18:28:07.535-08:00,2023-02-23T12:03:25.234-08:00,5104,1.557456,0,0,4031.516,6,4,2023-02-25T18:28:07.535-08:00,699071287.6003374,0,84.77,97.67144,1,0.7
2023-02-25T18:28:08.319-08:00,1677378487.001672,34.2569046566464,-118.5949038484506,299.2826,0,1.795702,11.59998951061873,180,1.571335289870708,6.64450334219279,-9999,41372.372384125,-0.8772430419921875,0.903717041015625,-0.383148193359375,41372.336407125,-2.723946846925394,-1.282611581720073,-0.3271027897626544,-0.4885889291763306,0.1688865274190903,2.437356948852539,0.1019406318664551,0.4635807871818542,-0.1049113869667053,XArbitraryZVertical,-0.6044840140867307,0.005272604026242023,-0.7532526509970766,0.2591942677256693,-0.9079251289367676,0.3213007748126984,-0.2691425383090973,0,0,0,-1,-1,41371.59062216667,walking,2,2023-02-25T18:28:07.535-08:00,2023-02-23T12:03:25.234-08:00,5104,1.557456,0,0,4031.516,6,4,2023-02-25T18:28:07.535-08:00,699071287.6003374,0,84.77,97.67144,1,0.7
2023-02-25T18:28:08.355-08:00,1677378488.001699,34.25689150505004,-118.5949062697194,299.3217,0,1.472835,11.59998826283477,180,1.70106935061821,6.657425820011861,-9999,41372.40589912501,-1.018264770507812,0.936859130859375,-0.4007568359375,41372.395971125,-2.66002067744348,-1.251359797099118,-0.4928002736693325,0.7830718159675598,-0.03605862706899643,3.367445707321167,-0.1180701851844788,0.4888802170753479,-0.1076271235942841,XArbitraryZVertical,-0.5987216395151389,0.0565656587235967,-0.7293410438072301,0.3261812119925744,-0.8364432454109192,0.4730948209762573,-0.2766654491424561,0,0,0,-1,-1,41371.59062216667,walking,2,2023-02-25T18:28:07.535-08:00,2023-02-23T12:03:25.234-08:00,5104,1.557456,0,0,4031.516,6,4,2023-02-25T18:28:07.535-08:00,699071287.6003374,0,84.77,97.67144,1,0.7
2023-02-25T18:28:08.389-08:00,1677378488.001699,34.25689150505004,-118.5949062697194,299.3217,0,1.472835,11.59998826283477,180,1.70106935061821,6.657425820011861,-9999,41372.439413125,-1.075546264648438,0.8048248291015625,-0.3474578857421875,41372.395971125,-2.66002067744348,-1.251359797099118,-0.4928002736693325,0.7830718159675598,-0.03605862706899643,3.367445707321167,-0.1180701851844788,0.4888802170753479,-0.1076271235942841,XArbitraryZVertical,-0.5987216395151389,0.0565656587235967,-0.7293410438072301,0.3261812119925744,-0.8364432454109192,0.4730948209762573,-0.2766654491424561,0,0,0,-1,-1,41371.59062216667,walking,2,2023-02-25T18:28:07.535-08:00,2023-02-23T12:03:25.234-08:00,5104,1.557456,0,0,4031.516,6,4,2023-02-25T18:28:07.535-08:00,699071287.6003374,0,84.77,97.67144,1,0.7
2023-02-25T18:28:08.419-08:00,1677378488.001699,34.25689150505004,-118.5949062697194,299.3217,0,1.472835,11.59998826283477,180,1.70106935061821,6.657425820011861,-9999,41372.47288912501,-0.9901885986328125,0.7365570068359375,-0.266845703125,41372.455536125,-2.504955030567396,-1.163847411608528,-0.6585388862040831,0.9116353988647461,0.125569686293602,3.144233703613281,-0.3159385919570923,0.138205885887146,0.01924777030944824,XArbitraryZVertical,-0.5785193385814326,0.09378229125668847,-0.6951915795745174,0.4162078766199359,-0.7262976765632629,0.6119619011878967,-0.3130405247211456,0,0,0,-1,-1,41371.59062216667,walking,2,2023-02-25T18:28:07.535-08:00,2023-02-23T12:03:25.234-08:00,5104,1.557456,0,0,4031.516,6,4,2023-02-25T18:28:07.535-08:00,699071287.6003374,0,84.77,97.67144,1,0.7
2023-02-25T18:28:08.454-08:00,1677378488.001699,34.25689150505004,-118.5949062697194,299.3217,0,1.472835,11.59998826283477,180,1.70106935061821,6.657425820011861,-9999,41372.506403125,-0.9718475341796875,0.885528564453125,-0.3309478759765625,41372.455536125,-2.504955030567396,-1.163847411608528,-0.6585388862040831,0.9116353988647461,0.125569686293602,3.144233703613281,-0.3159385919570923,0.138205885887146,0.01924777030944824,XArbitraryZVertical,-0.5785193385814326,0.09378229125668847,-0.6951915795745174,0.4162078766199359,-0.7262976765632629,0.6119619011878967,-0.3130405247211456,0,0,0,-1,-1,41371.59062216667,walking,2,2023-02-25T18:28:07.535-08:00,2023-02-23T12:03:25.234-08:00,5104,1.557456,0,0,4031.516,6,4,2023-02-25T18:28:07.535-08:00,699071287.6003374,0,84.77,97.67144,1,0.7
2023-02-25T18:28:08.488-08:00,1677378488.001699,34.25689150505004,-118.5949062697194,299.3217,0,1.472835,11.59998826283477,180,1.70106935061821,6.657425820011861,-9999,41372.539918125,-0.9138031005859375,1.004196166992188,-0.328125,41372.51510012501,-2.34892358882452,-1.059578817007701,-0.7902740234468612,1.016939163208008,-0.2522130310535431,2.521895885467529,-0.33537757396698,0.22365802526474,0.007309108972549438,XArbitraryZVertical,-0.5584849611368831,0.126363370554672,-0.6595887167849153,0.4868979890633076,-0.613688588142395,0.7105461359024048,-0.3442536890506744,0,0,0,-1,-1,41371.59062216667,walking,2,2023-02-25T18:28:07.535-08:00,2023-02-23T12:03:25.234-08:00,5104,1.557456,0,0,4031.516,6,4,2023-02-25T18:28:07.535-08:00,699071287.6003374,0,84.77,97.67144,1,0.7
2023-02-25T18:28:08.523-08:00,1677378488.001699,34.25689150505004,-118.5949062697194,299.3217,0,1.472835,11.59998826283477,180,1.70106935061821,6.657425820011861,-9999,41372.57343312501,-0.8856048583984375,0.72119140625,-0.1879730224609375,41372.51510012501,-2.34892358882452,-1.059578817007701,-0.7902740234468612,1.016939163208008,-0.2522130310535431,2.521895885467529,-0.33537757396698,0.22365802526474,0.007309108972549438,XArbitraryZVertical,-0.5584849611368831,0.126363370554672,-0.6595887167849153,0.4868979890633076,-0.613688588142395,0.7105461359024048,-0.3442536890506744,0,0,0,-1,-1,41371.59062216667,walking,2,2023-02-25T18:28:07.535-08:00,2023-02-23T12:03:25.234-08:00,5104,1.557456,0,0,4031.516,6,4,2023-02-25T18:28:07.535-08:00,699071287.6003374,0,84.77,97.67144,1,0.7
2023-02-25T18:28:08.553-08:00,1677378488.001699,34.25689150505004,-118.5949062697194,299.3217,0,1.472835,11.59998826283477,180,1.70106935061821,6.657425820011861,-9999,41372.606908125,-0.7592315673828125,0.6625518798828125,-0.307342529296875,41372.574664125,-2.118471760338419,-0.9220631446857309,-0.8673795295929955,1.801215648651123,-0.6650487780570984,2.534356594085693,-0.3701807260513306,-0.04144519567489624,0.2028253674507141,XArbitraryZVertical,-0.5362442294850527,0.1305486056634524,-0.6171263054555749,0.5608513577768586,-0.5154241323471069,0.7626365423202515,-0.3907983899116516,0,0,0,-1,-1,41371.59062216667,walking,2,2023-02-25T18:28:07.535-08:00,2023-02-23T12:03:25.234-08:00,5104,1.557456,0,0,4031.516,6,4,2023-02-25T18:28:07.535-08:00,699071287.6003374,0,84.77,97.67144,1,0.7
2023-02-25T18:28:08.587-08:00,1677378488.001699,34.25689150505004,-118.5949062697194,299.3217,0,1.472835,11.59998826283477,180,1.70106935061821,6.657425820011861,-9999,41372.64042312501,-0.6765594482421875,0.5848388671875,-0.3267364501953125,41372.634228125,-1.847953829903467,-0.7617780154955616,-0.8970719836538474,1.878626108169556,-1.215627551078796,2.013384103775024,-0.2611656486988068,-0.1737611889839172,0.1042623817920685,XArbitraryZVertical,-0.5099196669079071,0.1193797522486091,-0.5703846390835707,0.6327650788161383,-0.430622011423111,0.7815034985542297,-0.4514608085155487,0,0,0,-1,-1,41371.59062216667,walking,2,2023-02-25T18:28:07.535-08:00,2023-02-23T12:03:25.234-08:00,5104,1.557456,0,0,4031.516,6,4,2023-02-25T18:28:07.535-08:00,699071287.6003374,0,84.77,97.67144,1,0.7
2023-02-25T18:28:08.623-08:00,1677378488.001699,34.25689150505004,-118.5949062697194,299.3217,0,1.472835,11.59998826283477,180,1.70106935061821,6.657425820011861,-9999,41372.673938125,-0.5903167724609375,0.6815338134765625,-0.1722564697265625,41372.634228125,-1.847953829903467,-0.7617780154955616,-0.8970719836538474,1.878626108169556,-1.215627551078796,2.013384103775024,-0.2611656486988068,-0.1737611889839172,0.1042623817920685,XArbitraryZVertical,-0.5099196669079071,0.1193797522486091,-0.5703846390835707,0.6327650788161383,-0.430622011423111,0.7815034985542297,-0.4514608085155487,0,0,0,-1,-1,41371.59062216667,walking,2,2023-02-25T18:28:07.535-08:00,2023-02-23T12:03:25.234-08:00,5104,1.557456,0,0,4031.516,6,4,2023-02-25T18:28:07.535-08:00,699071287.6003374,0,84.77,97.67144,1,0.7
2023-02-25T18:28:08.657-08:00,1677378488.001699,34.25689150505004,-118.5949062697194,299.3217,0,1.472835,11.59998826283477,180,1.70106935061821,6.657425820011861,-9999,41372.707453125,-0.552459716796875,0.7440185546875,-0.227752685546875,41372.693793125,-1.597888435822709,-0.6413922470424237,-0.8832036659934506,2.406468629837036,-1.352090120315552,1.795231461524963,-0.1984961628913879,0.02565526962280273,0.2938232421875,XArbitraryZVertical,-0.4871174688670404,0.0918918306164451,-0.5208770614800391,0.6949529523112821,-0.3797356188297272,0.7727761268615723,-0.508544921875,0,0,0,-1,-1,41371.59062216667,walking,2,2023-02-25T18:28:07.535-08:00,2023-02-23T12:03:25.234-08:00,5104,1.557456,0,0,4031.516,6,4,2023-02-25T18:28:07.535-08:00,699071287.6003374,0,84.77,97.67144,1,0.7
2023-02-25T18:28:08.687-08:00,1677378488.001699,34.25689150505004,-118.5949062697194,299.3217,0,1.472835,11.59998826283477,180,1.70106935061821,6.657425820011861,-9999,41372.740928125,-0.5037689208984375,0.400970458984375,-0.2285308837890625,41372.693793125,-1.597888435822709,-0.6413922470424237,-0.8832036659934506,2.406468629837036,-1.352090120315552,1.795231461524963,-0.1984961628913879,0.02565526962280273,0.2938232421875,XArbitraryZVertical,-0.4871174688670404,0.0918918306164451,-0.5208770614800391,0.6949529523112821,-0.3797356188297272,0.7727761268615723,-0.508544921875,0,0,0,-1,-1,41371.59062216667,walking,2,2023-02-25T18:28:07.535-08:00,2023-02-23T12:03:25.234-08:00,5104,1.557456,0,0,4031.516,6,4,2023-02-25T18:28:07.535-08:00,699071287.6003374,0,84.77,97.67144,1,0.7
2023-02-25T18:28:08.722-08:00,1677378488.001699,34.25689150505004,-118.5949062697194,299.3217,0,1.472835,11.59998826283477,180,1.70106935061821,6.657425820011861,-9999,41372.774443125,-0.366058349609375,0.237548828125,-0.2605438232421875,41372.753357125,-1.331936282127691,-0.5269110461605313,-0.8122358286155258,2.076158761978149,-1.230815529823303,1.759695410728455,-0.1204444169998169,-0.3848693370819092,0.3449124097824097,XArbitraryZVertical,-0.4477192418371778,0.04753021111756786,-0.4670902029413926,0.7609960746530435,-0.3459099233150482,0.7258269786834717,-0.5945767164230347,0,0,0,-1,-1,41371.59062216667,walking,2,2023-02-25T18:28:07.535-08:00,2023-02-23T12:03:25.234-08:00,5104,1.557456,0,0,4031.516,6,4,2023-02-25T18:28:07.535-08:00,699071287.6003374,0,84.77,97.67144,1,0.7
2023-02-25T18:28:08.756-08:00,1677378488.001699,34.25689150505004,-118.5949062697194,299.3217,0,1.472835,11.59998826283477,180,1.70106935061821,6.657425820011861,-9999,41372.80795712501,-0.32421875,0.232208251953125,-0.345916748046875,41372.753357125,-1.331936282127691,-0.5269110461605313,-0.8122358286155258,2.076158761978149,-1.230815529823303,1.759695410728455,-0.1204444169998169,-0.3848693370819092,0.3449124097824097,XArbitraryZVertical,-0.4477192418371778,0.04753021111756786,-0.4670902029413926,0.7609960746530435,-0.3459099233150482,0.7258269786834717,-0.5945767164230347,0,0,0,-1,-1,41371.59062216667,walking,2,2023-02-25T18:28:07.535-08:00,2023-02-23T12:03:25.234-08:00,5104,1.557456,0,0,4031.516,6,4,2023-02-25T18:28:07.535-08:00,699071287.6003374,0,84.77,97.67144,1,0.7
2023-02-25T18:28:08.791-08:00,1677378488.001699,34.25689150505004,-118.5949062697194,299.3217,0,1.472835,11.59998826283477,180,1.70106935061821,6.657425820011861,-9999,41372.841472125,-0.276519775390625,0.26422119140625,-0.3071136474609375,41372.81292112501,-1.174559075313458,-0.4841983173679116,-0.8021410897435878,0.05694039538502693,-1.076509356498718,1.14472234249115,0.004462957382202148,-0.4781540036201477,0.2644283175468445,XArbitraryZVertical,-0.4378130512899841,0.02627833447469072,-0.4173362114744187,0.7959017597971603,-0.3236005306243896,0.7188461422920227,-0.6152583360671997,0,0,0,-1,-1,41371.59062216667,walking,2,2023-02-25T18:28:07.535-08:00,2023-02-23T12:03:25.234-08:00,5104,1.557456,0,0,4031.516,6,4,2023-02-25T18:28:07.535-08:00,699071287.6003374,0,84.77,97.67144,1,0.7
2023-02-25T18:28:08.821-08:00,1677378488.001699,34.25689150505004,-118.5949062697194,299.3217,0,1.472835,11.59998826283477,180,1.70106935061821,6.657425820011861,-9999,41372.874947125,-0.2904815673828125,0.4011077880859375,-0.4713134765625,41372.81292112501,-1.174559075313458,-0.4841983173679116,-0.8021410897435878,0.05694039538502693,-1.076509356498718,1.14472234249115,0.004462957382202148,-0.4781540036201477,0.2644283175468445,XArbitraryZVertical,-0.4378130512899841,0.02627833447469072,-0.4173362114744187,0.7959017597971603,-0.3236005306243896,0.7188461422920227,-0.6152583360671997,0,0,0,-1,-1,41371.59062216667,walking,2,2023-02-25T18:28:07.535-08:00,2023-02-23T12:03:25.234-08:00,5104,1.557456,0,0,4031.516,6,4,2023-02-25T18:28:07.535-08:00,699071287.6003374,0,84.77,97.67144,1,0.7
2023-02-25T18:28:08.855-08:00,1677378488.001699,34.25689150505004,-118.5949062697194,299.3217,0,1.472835,11.59998826283477,180,1.70106935061821,6.657425820011861,-9999,41372.90846229167,-0.3262939453125,0.520050048828125,-0.718353271484375,41372.872485125,-1.130677617276956,-0.5105276747243498,-0.8413773339712184,-0.4987650513648987,-0.8728467226028442,0.2611485719680786,0.044655442237854,-0.3572255969047546,0.1286373138427734,XArbitraryZVertical,-0.4571436644855906,0.01706299764982747,-0.3860739397802955,0.8010464018598377,-0.3256460130214691,0.7455617189407349,-0.5814570188522339,0,0,0,-1,-1,41371.59062216667,walking,2,2023-02-25T18:28:07.535-08:00,2023-02-23T12:03:25.234-08:00,5104,1.557456,0,0,4031.516,6,4,2023-02-25T18:28:07.535-08:00,699071287.6003374,0,84.77,97.67144,1,0.7
2023-02-25T18:28:08.891-08:00,1677378488.001699,34.25689150505004,-118.5949062697194,299.3217,0,1.472835,11.59998826283477,180,1.70106935061821,6.657425820011861,-9999,41372.94197729167,-0.4698333740234375,0.7480316162109375,-0.6777191162109375,41372.93205029167,-1.18406972877761,-0.5843578265473303,-0.8963376759371097,-1.22257936000824,-0.2188318967819214,-0.1909924000501633,-0.0575232207775116,-0.06211203336715698,-0.1633812189102173,XArbitraryZVertical,-0.4891957401602996,0.01615164846548037,-0.3780535748147307,0.7858130032068229,-0.3445000350475311,0.781045138835907,-0.5208532810211182,0,0,0,-1,-1,41371.59062216667,walking,2,2023-02-25T18:28:07.535-08:00,2023-02-23T12:03:25.234-08:00,5104,1.557456,0,0,4031.516,6,4,2023-02-25T18:28:07.535-08:00,699071287.6003374,0,84.77,97.67144,1,0.7
2023-02-25T18:28:08.925-08:00,1677378488.001699,34.25689150505004,-118.5949062697194,299.3217,0,1.472835,11.59998826283477,180,1.70106935061821,6.657425820011861,-9999,41372.97549229167,-0.4149322509765625,0.6989898681640625,-0.6573638916015625,41372.93205029167,-1.18406972877761,-0.5843578265473303,-0.8963376759371097,-1.22257936000824,-0.2188318967819214,-0.1909924000501633,-0.0575232207775116,-0.06211203336715698,-0.1633812189102173,XArbitraryZVertical,-0.4891957401602996,0.01615164846548037,-0.3780535748147307,0.7858130032068229,-0.3445000350475311,0.781045138835907,-0.5208532810211182,0,0,0,-1,-1,41371.59062216667,walking,2,2023-02-25T18:28:07.535-08:00,2023-02-23T12:03:25.234-08:00,5104,1.557456,0,0,4031.516,6,4,2023-02-25T18:28:07.535-08:00,699071287.6003374,0,84.77,97.67144,1,0.7
2023-02-25T18:28:08.955-08:00,1677378488.001699,34.25689150505004,-118.5949062697194,299.3217,0,1.472835,11.59998826283477,180,1.70106935061821,6.657425820011861,-9999,41373.00896729167,-0.5445709228515625,0.7203826904296875,-0.679107666015625,41372.99161429167,-1.285247492683452,-0.6602083251477674,-0.944740966268602,-2.330708742141724,0.3823442161083221,-0.599556028842926,-0.1167811751365662,-0.2225613594055176,-0.1795868873596191,XArbitraryZVertical,-0.5175570335364934,0.02688889770966552,-0.3867917977327455,0.7627607375664645,-0.3593540489673615,0.8103451728820801,-0.4628234207630157,0,0,0,-1,-1,41371.59062216667,walking,2,2023-02-25T18:28:07.535-08:00,2023-02-23T12:03:25.234-08:00,5104,1.557456,0,0,4031.516,6,4,2023-02-25T18:28:07.535-08:00,699071287.6003374,0,84.77,97.67144,1,0.7
2023-02-25T18:28:08.990-08:00,1677378488.001699,34.25689150505004,-118.5949062697194,299.3217,0,1.472835,11.59998826283477,180,1.70106935061821,6.657425820011861,-9999,41373.04248229167,-0.5785064697265625,1.240264892578125,-0.53863525390625,41372.99161429167,-1.285247492683452,-0.6602083251477674,-0.944740966268602,-2.330708742141724,0.3823442161083221,-0.599556028842926,-0.1167811751365662,-0.2225613594055176,-0.1795868873596191,XArbitraryZVertical,-0.5175570335364934,0.02688889770966552,-0.3867917977327455,0.7627607375664645,-0.3593540489673615,0.8103451728820801,-0.4628234207630157,0,0,0,-1,-1,41371.59062216667,walking,2,2023-02-25T18:28:07.535-08:00,2023-02-23T12:03:25.234-08:00,5104,1.557456,0,0,4031.516,6,4,2023-02-25T18:28:07.535-08:00,699071287.6003374,0,84.77,97.67144,1,0.7
2023-02-25T18:28:09.024-08:00,1677378488.001699,34.25689150505004,-118.5949062697194,299.3217,0,1.472835,11.59998826283477,180,1.70106935061821,6.657425820011861,-9999,41373.07599729167,-0.49749755859375,1.1375732421875,-0.5270233154296875,41373.05117829167,-1.566399607951138,-0.8502893423335389,-1.048824050148511,-2.284244537353516,1.312361001968384,-0.8079325556755066,-0.1732513010501862,0.3532552123069763,-0.1895100772380829,XArbitraryZVertical,-0.5751419329485332,0.06881327571732726,-0.4100191207675892,0.7045286939862886,-0.374676525592804,0.8668375015258789,-0.328952968120575,0,0,0,-1,-1,41371.59062216667,walking,2,2023-02-25T18:28:07.535-08:00,2023-02-23T12:03:25.234-08:00,5104,1.557456,0,0,4031.516,6,4,2023-02-25T18:28:07.535-08:00,699071287.6003374,0,84.77,97.67144,1,0.7
2023-02-25T18:28:09.059-08:00,1677378488.001699,34.25689150505004,-118.5949062697194,299.3217,0,1.472835,11.59998826283477,180,1.70106935061821,6.657425820011861,-9999,41373.10951129167,-0.5583343505859375,1.220108032226562,-0.530120849609375,41373.05117829167,-1.566399607951138,-0.8502893423335389,-1.048824050148511,-2.284244537353516,1.312361001968384,-0.8079325556755066,-0.1732513010501862,0.3532552123069763,-0.1895100772380829,XArbitraryZVertical,-0.5751419329485332,0.06881327571732726,-0.4100191207675892,0.7045286939862886,-0.374676525592804,0.8668375015258789,-0.328952968120575,0,0,0,-1,-1,41371.59062216667,walking,2,2023-02-25T18:28:07.535-08:00,2023-02-23T12:03:25.234-08:00,5104,1.557456,0,0,4031.516,6,4,2023-02-25T18:28:07.535-08:00,699071287.6003374,0,84.77,97.67144,1,0.7
2023-02-25T18:28:09.089-08:00,1677378488.001699,34.25689150505004,-118.5949062697194,299.3217,0,1.472835,11.59998826283477,180,1.70106935061821,6.657425820011861,-9999,41373.14298729167,-0.6070404052734375,1.006057739257812,-0.412384033203125,41373.11074229167,-1.796476368630947,-0.9656222831764677,-1.069300326380538,-1.006381630897522,1.556984901428223,-0.8321042060852051,-0.1629740595817566,0.3432436585426331,-0.2566266059875488,XArbitraryZVertical,-0.5936383898646131,0.1041457785195766,-0.448754516120023,0.6598230470058508,-0.3953602612018585,0.8768643736839294,-0.2734942436218262,0,0,0,-1,-1,41371.59062216667,walking,2,2023-02-25T18:28:07.535-08:00,2023-02-23T12:03:25.234-08:00,5104,1.557456,0,0,4031.516,6,4,2023-02-25T18:28:07.535-08:00,699071287.6003374,0,84.77,97.67144,1,0.7
2023-02-25T18:28:09.123-08:00,1677378488.001699,34.25689150505004,-118.5949062697194,299.3217,0,1.472835,11.59998826283477,180,1.70106935061821,6.657425820011861,-9999,41373.17650129167,-0.5323486328125,0.694366455078125,-0.2555084228515625,41373.17030729167,-1.875386374777758,-0.9358581492543349,-1.040771144926333,0.2757062911987305,1.797032952308655,-0.7331640720367432,-0.1454178094863892,-0.1109175086021423,0.011604905128479,XArbitraryZVertical,-0.5780455355092571,0.1262299428479616,-0.4916013329843678,0.6389502887372605,-0.4070265889167786,0.8627943396568298,-0.2998587191104889,0,0,0,-1,-1,41371.59062216667,walking,2,2023-02-25T18:28:07.535-08:00,2023-02-23T12:03:25.234-08:00,5104,1.557456,0,0,4031.516,6,4,2023-02-25T18:28:07.535-08:00,699071287.6003374,0,84.77,97.67144,1,0.7
2023-02-25T18:28:09.159-08:00,1677378488.001699,34.25689150505004,-118.5949062697194,299.3217,0,1.472835,11.59998826283477,180,1.70106935061821,6.657425820011861,-9999,41373.21001629167,-0.5780487060546875,0.4741058349609375,-0.211517333984375,41373.17030729167,-1.875386374777758,-0.9358581492543349,-1.040771144926333,0.2757062911987305,1.797032952308655,-0.7331640720367432,-0.1454178094863892,-0.1109175086021423,0.011604905128479,XArbitraryZVertical,-0.5780455355092571,0.1262299428479616,-0.4916013329843678,0.6389502887372605,-0.4070265889167786,0.8627943396568298,-0.2998587191104889,0,0,0,-1,-1,41371.59062216667,walking,2,2023-02-25T18:28:07.535-08:00,2023-02-23T12:03:25.234-08:00,5104,1.557456,0,0,4031.516,6,4,2023-02-25T18:28:07.535-08:00,699071287.6003374,0,84.77,97.67144,1,0.7
2023-02-25T18:28:09.193-08:00,1677378488.001699,34.25689150505004,-118.5949062697194,299.3217,0,1.472835,11.59998826283477,180,1.70106935061821,6.657425820011861,-9999,41373.24353129167,-0.7493133544921875,0.4504547119140625,-0.2496490478515625,41373.22987129167,-1.936169777214076,-0.8836957473830196,-0.9797869355173214,0.01893066242337227,1.651041626930237,-1.504938244819641,-0.2361361384391785,-0.4677687883377075,0.1207647919654846,XArbitraryZVertical,-0.5519517068645556,0.1365061340720365,-0.5430400651597693,0.6179182540387439,-0.4307645261287689,0.8303786516189575,-0.3534307777881622,0,0,0,-1,-1,41371.59062216667,walking,2,2023-02-25T18:28:07.535-08:00,2023-02-23T12:03:25.234-08:00,5104,1.557456,0,0,4031.516,6,4,2023-02-25T18:28:07.535-08:00,699071287.6003374,0,84.77,97.67144,1,0.7
2023-02-25T18:28:09.223-08:00,1677378488.001699,34.25689150505004,-118.5949062697194,299.3217,0,1.472835,11.59998826283477,180,1.70106935061821,6.657425820011861,-9999,41373.27700629167,-0.7336883544921875,0.460052490234375,-0.172821044921875,41373.22987129167,-1.936169777214076,-0.8836957473830196,-0.9797869355173214,0.01893066242337227,1.651041626930237,-1.504938244819641,-0.2361361384391785,-0.4677687883377075,0.1207647919654846,XArbitraryZVertical,-0.5519517068645556,0.1365061340720365,-0.5430400651597693,0.6179182540387439,-0.4307645261287689,0.8303786516189575,-0.3534307777881622,0,0,0,-1,-1,41371.59062216667,walking,2,2023-02-25T18:28:07.535-08:00,2023-02-23T12:03:25.234-08:00,5104,1.557456,0,0,4031.516,6,4,2023-02-25T18:28:07.535-08:00,699071287.6003374,0,84.77,97.67144,1,0.7
2023-02-25T18:28:09.258-08:00,1677378488.001699,34.25689150505004,-118.5949062697194,299.3217,0,1.472835,11.59998826283477,180,1.70106935061821,6.657425820011861,-9999,41373.31052129167,-0.597930908203125,0.30072021484375,-0.1862945556640625,41373.28943529167,-2.032704529063557,-0.8615195686708128,-0.8668005624690546,0.5243129730224609,1.528712272644043,-2.704575777053833,-0.2006188333034515,-0.3836761713027954,0.2726154327392578,XArbitraryZVertical,-0.5230836321634005,0.1249211636707138,-0.6087802997314341,0.5832364289968157,-0.491168886423111,0.7622619271278381,-0.4215564429759979,0,0,0,-1,-1,41371.59062216667,walking,2,2023-02-25T18:28:07.535-08:00,2023-02-23T12:03:25.234-08:00,5104,1.557456,0,0,4031.516,6,4,2023-02-25T18:28:07.535-08:00,699071287.6003374,0,84.77,97.67144,1,0.7
2023-02-25T18:28:09.292-08:00,1677378489.001726,34.25688630061454,-118.5949037351906,299.7213,0,2.002433,11.59999021110467,180,1.729565244998994,7.06877531672658,-9999,41373.34403629167,-0.5407867431640625,0.3348236083984375,-0.251800537109375,41373.28943529167,-2.032704529063557,-0.8615195686708128,-0.8668005624690546,0.5243129730224609,1.528712272644043,-2.704575777053833,-0.2006188333034515,-0.3836761713027954,0.2726154327392578,XArbitraryZVertical,-0.5230836321634005,0.1249211636707138,-0.6087802997314341,0.5832364289968157,-0.491168886423111,0.7622619271278381,-0.4215564429759979,0,0,0,-1,-1,41371.59062216667,walking,2,2023-02-25T18:28:07.535-08:00,2023-02-23T12:03:25.234-08:00,5104,1.557456,0,0,4031.516,6,4,2023-02-25T18:28:07.535-08:00,699071287.6003374,0,84.77,97.67144,1,0.7
2023-02-25T18:28:09.327-08:00,1677378489.001726,34.25688630061454,-118.5949037351906,299.7213,0,2.002433,11.59999021110467,180,1.729565244998994,7.06877531672658,-9999,41373.37755129167,-0.5342559814453125,0.3413238525390625,-0.148529052734375,41373.34899929167,-2.215869358928842,-0.9171484333642157,-0.7501927197464352,-1.153407692909241,0.9870202541351318,-2.71122145652771,0.04223376512527466,-0.3377856016159058,0.1977646350860596,XArbitraryZVertical,-0.5152360368296116,0.1100306170613865,-0.67413559885902,0.5176546362020049,-0.5807622075080872,0.6817797422409058,-0.4448501765727997,0,0,0,-1,-1,41371.59062216667,walking,2,2023-02-25T18:28:07.535-08:00,2023-02-23T12:03:25.234-08:00,5104,1.557456,0,0,4031.516,6,4,2023-02-25T18:28:07.535-08:00,699071287.6003374,0,84.77,97.67144,1,0.7
2023-02-25T18:28:09.357-08:00,1677378489.001726,34.25688630061454,-118.5949037351906,299.7213,0,2.002433,11.59999021110467,180,1.729565244998994,7.06877531672658,-9999,41373.41102629167,-0.5308685302734375,0.2649993896484375,-0.0556793212890625,41373.34899929167,-2.215869358928842,-0.9171484333642157,-0.7501927197464352,-1.153407692909241,0.9870202541351318,-2.71122145652771,0.04223376512527466,-0.3377856016159058,0.1977646350860596,XArbitraryZVertical,-0.5152360368296116,0.1100306170613865,-0.67413559885902,0.5176546362020049,-0.5807622075080872,0.6817797422409058,-0.4448501765727997,0,0,0,-1,-1,41371.59062216667,walking,2,2023-02-25T18:28:07.535-08:00,2023-02-23T12:03:25.234-08:00,5104,1.557456,0,0,4031.516,6,4,2023-02-25T18:28:07.535-08:00,699071287.6003374,0,84.77,97.67144,1,0.7
2023-02-25T18:28:09.392-08:00,1677378489.001726,34.25688630061454,-118.5949037351906,299.7213,0,2.002433,11.59999021110467,180,1.729565244998994,7.06877531672658,-9999,41373.44454029167,-0.7358551025390625,0.3729400634765625,-0.1092376708984375,41373.40856429167,-2.43893568315917,-1.023399375823738,-0.6622611479121312,-2.063561677932739,0.1992945075035095,-2.915802001953125,0.1536604762077332,-0.3466674089431763,0.3522294461727142,XArbitraryZVertical,-0.5323288790418768,0.1067947765855264,-0.7193946296729052,0.4332344280218964,-0.6733747124671936,0.6149015426635742,-0.410441666841507,0,0,0,-1,-1,41371.59062216667,walking,2,2023-02-25T18:28:07.535-08:00,2023-02-23T12:03:25.234-08:00,5104,1.557456,0,0,4031.516,6,4,2023-02-25T18:28:07.535-08:00,699071287.6003374,0,84.77,97.67144,1,0.7
2023-02-25T18:28:09.427-08:00,1677378489.001726,34.25688630061454,-118.5949037351906,299.7213,0,2.002433,11.59999021110467,180,1.729565244998994,7.06877531672658,-9999,41373.47805529167,-0.9326171875,0.59527587890625,-0.1435089111328125,41373.46812829167,-2.682718742901064,-1.165686050546041,-0.5586071791533268,-1.606575727462769,-0.09853212535381317,-3.249032497406006,-0.1080182194709778,0.00988084077835083,0.1740095615386963,XArbitraryZVertical,-0.5675535951022935,0.1038129697284544,-0.7470062542574498,0.3302839911499234,-0.7793566584587097,0.5300056338310242,-0.3342115581035614,0,0,0,-1,-1,41371.59062216667,walking,2,2023-02-25T18:28:07.535-08:00,2023-02-23T12:03:25.234-08:00,5104,1.557456,0,0,4031.516,6,4,2023-02-25T18:28:07.535-08:00,699071287.6003374,0,84.77,97.67144,1,0.7
2023-02-25T18:28:09.461-08:00,1677378489.001726,34.25688630061454,-118.5949037351906,299.7213,0,2.002433,11.59999021110467,180,1.729565244998994,7.06877531672658,-9999,41373.51157029167,-0.90167236328125,0.590667724609375,-0.1656646728515625,41373.46812829167,-2.682718742901064,-1.165686050546041,-0.5586071791533268,-1.606575727462769,-0.09853212535381317,-3.249032497406006,-0.1080182194709778,0.00988084077835083,0.1740095615386963,XArbitraryZVertical,-0.5675535951022935,0.1038129697284544,-0.7470062542574498,0.3302839911499234,-0.7793566584587097,0.5300056338310242,-0.3342115581035614,0,0,0,-1,-1,41371.59062216667,walking,2,2023-02-25T18:28:07.535-08:00,2023-02-23T12:03:25.234-08:00,5104,1.557456,0,0,4031.516,6,4,2023-02-25T18:28:07.535-08:00,699071287.6003374,0,84.77,97.67144,1,0.7
2023-02-25T18:28:09.491-08:00,1677378489.001726,34.25688630061454,-118.5949037351906,299.7213,0,2.002433,11.59999021110467,180,1.729565244998994,7.06877531672658,-9999,41373.54504529167,-0.9349212646484375,0.5628509521484375,-0.2689971923828125,41373.52769229167,-2.807271830340591,-1.234714692214292,-0.3946488785722974,-0.05213422700762749,-0.3888132274150848,-3.099310398101807,-0.02768367528915405,0.2007057070732117,0.1002316772937775,XArbitraryZVertical,-0.5863342858736699,0.06318303664220781,-0.7695599746710395,0.2449437257780743,-0.8714862465858459,0.3844840824604034,-0.3044400215148926,0,0,0,-1,-1,41371.59062216667,walking,2,2023-02-25T18:28:07.535-08:00,2023-02-23T12:03:25.234-08:00,5104,1.557456,0,0,4031.516,6,4,2023-02-25T18:28:07.535-08:00,699071287.6003374,0,84.77,97.67144,1,0.7
