loggingTime(txt),locationTimestamp_since1970(s),locationLatitude(WGS84),locationLongitude(WGS84),locationAltitude(m),locationSpeed(m/s),locationSpeedAccuracy(m/s),locationCourse(°),locationCourseAccuracy(°),locationVerticalAccuracy(m),locationHorizontalAccuracy(m),locationFloor(Z),accelerometerTimestamp_sinceReboot(s),accelerometerAccelerationX(G),accelerometerAccelerationY(G),accelerometerAccelerationZ(G),motionTimestamp_sinceReboot(s),motionYaw(rad),motionRoll(rad),motionPitch(rad),motionRotationRateX(rad/s),motionRotationRateY(rad/s),motionRotationRateZ(rad/s),motionUserAccelerationX(G),motionUserAccelerationY(G),motionUserAccelerationZ(G),motionAttitudeReferenceFrame(txt),motionQuaternionX(R),motionQuaternionY(R),motionQuaternionZ(R),motionQuaternionW(R),motionGravityX(G),motionGravityY(G),motionGravityZ(G),motionMagneticFieldX(µT),motionMagneticFieldY(µT),motionMagneticFieldZ(µT),motionHeading(°),motionMagneticFieldCalibrationAccuracy(Z),activityTimestamp_sinceReboot(s),activity(txt),activityActivityConfidence(Z),activityActivityStartDate(txt),pedometerStartDate(txt),pedometerNumberofSteps(N),pedometerAverageActivePace(s/m),pedometerCurrentPace(s/m),pedometerCurrentCadence(steps/s),pedometerDistance(m),pedometerFloorAscended(N),pedometerFloorDescended(N),pedometerEndDate(txt),altimeterTimestamp_sinceReboot(s),altimeterReset(bool),altimeterRelativeAltitude(m),altimeterPressure(kPa),batteryState(N),batteryLevel(R)
2023-02-25T18:26:43.621-08:00,1677378403.359627,34.25712000934758,-118.5950534364217,298.0866,-1,-1,-1,-1,77.79964447021484,69.66666666666667,-9999,41287.670652,0.05401611328125,-0.5121307373046875,-0.898162841796875,41287.634674,0.2820203401561746,0.09569358424652907,0.507549067041689,-0.0007387134246528149,0.0362323485314846,-0.1477348208427429,0.02660475671291351,0.02508401870727539,0.009206950664520264,XArbitraryZVertical,0.2417763414549283,0.08108149612757194,0.1477748940987949,0.9555796954767251,0.08350271731615067,-0.4860367476940155,-0.8699399828910828,0,0,0,-1,-1,41285.18129825001,unknown,2,2023-02-25T18:26:41.090-08:00,2023-02-23T12:03:25.234-08:00,4999,1.574048,0,0,3946.346,6,4,2023-02-25T18:25:24.830-08:00,698897245.8532616,0,-63.99,99.91186,1,0.7
2023-02-25T18:26:43.624-08:00,1677378403.359627,34.25712000934758,-118.5950534364217,298.0866,-1,-1,-1,-1,77.79964447021484,69.66666666666667,-9999,41287.704168,0.085601806640625,-0.481231689453125,-0.863616943359375,41287.694241,0.2793473628294547,0.09631179588584557,0.5058166304702261,-0.037138432264328,-0.006686623208224773,-0.03398015350103378,-0.01278647780418396,0.01479542255401611,-0.005175232887268066,XArbitraryZVertical,0.2410082898936678,0.08094745660511835,0.1465626115952348,0.9559717468313997,0.08412135392427444,-0.4845219850540161,-0.8707250356674194,0,0,0,-1,-1,41285.18129825001,unknown,2,2023-02-25T18:26:41.090-08:00,2023-02-23T12:03:25.234-08:00,4999,1.574048,0,0,3946.346,6,4,2023-02-25T18:25:24.830-08:00,698897245.8532616,0,-63.99,99.91186,1,0.7
2023-02-25T18:26:43.637-08:00,1677378403.359627,34.25712000934758,-118.5950534364217,298.0866,-1,-1,-1,-1,77.79964447021484,69.66666666666667,-9999,41287.737684,0.0844573974609375,-0.47430419921875,-0.866546630859375,41287.694241,0.2793473628294547,0.09631179588584557,0.5058166304702261,-0.037138432264328,-0.006686623208224773,-0.03398015350103378,-0.01278647780418396,0.01479542255401611,-0.005175232887268066,XArbitraryZVertical,0.2410082898936678,0.08094745660511835,0.1465626115952348,0.9559717468313997,0.08412135392427444,-0.4845219850540161,-0.8707250356674194,0,0,0,-1,-1,41285.18129825001,unknown,2,2023-02-25T18:26:41.090-08:00,2023-02-23T12:03:25.234-08:00,4999,1.574048,0,0,3946.346,6,4,2023-02-25T18:25:24.830-08:00,698897245.8532616,0,-63.99,99.91186,1,0.7
2023-02-25T18:26:43.667-08:00,1677378403.359627,34.25712000934758,-118.5950534364217,298.0866,-1,-1,-1,-1,77.79964447021484,69.66666666666667,-9999,41287.771161,0.08905029296875,-0.47991943359375,-0.8664398193359375,41287.753807,0.2776045957106807,0.09627913842969228,0.5023180352993565,-0.01668991521000862,-0.00922248512506485,-0.003430366283282638,0.005206957459449768,0.01142680644989014,0.001987338066101074,XArbitraryZVertical,0.2394024244503773,0.08050849073366682,0.1457051605741346,0.9565431762136717,0.08425536006689072,-0.4814585149288177,-0.8724097013473511,0,0,0,-1,-1,41285.18129825001,unknown,2,2023-02-25T18:26:41.090-08:00,2023-02-23T12:03:25.234-08:00,4999,1.574048,0,0,3946.346,6,4,2023-02-25T18:25:24.830-08:00,698897245.8532616,0,-63.99,99.91186,1,0.7
2023-02-25T18:26:43.705-08:00,1677378403.359627,34.25712000934758,-118.5950534364217,298.0866,-1,-1,-1,-1,77.79964447021484,69.66666666666667,-9999,41287.80467554167,0.102691650390625,-0.4810028076171875,-0.867950439453125,41287.753807,0.2776045957106807,0.09627913842969228,0.5023180352993565,-0.01668991521000862,-0.00922248512506485,-0.003430366283282638,0.005206957459449768,0.01142680644989014,0.001987338066101074,XArbitraryZVertical,0.2394024244503773,0.08050849073366682,0.1457051605741346,0.9565431762136717,0.08425536006689072,-0.4814585149288177,-0.8724097013473511,0,0,0,-1,-1,41285.18129825001,unknown,2,2023-02-25T18:26:41.090-08:00,2023-02-23T12:03:25.234-08:00,4999,1.574048,0,0,3946.346,6,4,2023-02-25T18:25:24.830-08:00,699071203.7006645,0,80.91,97.81409,1,0.7
2023-02-25T18:26:43.737-08:00,1677378403.359627,34.25712000934758,-118.5950534364217,298.0866,-1,-1,-1,-1,77.79964447021484,69.66666666666667,-9999,41287.83819154167,0.0829315185546875,-0.4678802490234375,-0.88409423828125,41287.81337154167,0.2770401979881772,0.09570446436559116,0.5016212777531456,-0.05542456358671188,-0.0411071814596653,0.005541956517845392,0.01460269093513489,-0.005709260702133179,-0.004512369632720947,XArbitraryZVertical,0.2391324794629945,0.0801236099366149,0.1453623527085794,0.9566952199506946,0.08378603309392929,-0.4808477163314819,-0.8727917075157166,0,0,0,-1,-1,41285.18129825001,unknown,2,2023-02-25T18:26:41.090-08:00,2023-02-23T12:03:25.234-08:00,4999,1.574048,0,0,3946.346,6,4,2023-02-25T18:25:24.830-08:00,699071203.7006645,0,80.91,97.81409,1,0.7
2023-02-25T18:26:43.771-08:00,1677378403.359627,34.25712000934758,-118.5950534364217,298.0866,-1,-1,-1,-1,77.79964447021484,69.66666666666667,-9999,41287.87170754167,0.0751190185546875,-0.4915771484375,-0.87677001953125,41287.81337154167,0.2770401979881772,0.09570446436559116,0.5016212777531456,-0.05542456358671188,-0.0411071814596653,0.005541956517845392,0.01460269093513489,-0.005709260702133179,-0.004512369632720947,XArbitraryZVertical,0.2391324794629945,0.0801236099366149,0.1453623527085794,0.9566952199506946,0.08378603309392929,-0.4808477163314819,-0.8727917075157166,0,0,0,-1,-1,41285.18129825001,unknown,2,2023-02-25T18:26:41.090-08:00,2023-02-23T12:03:25.234-08:00,4999,1.574048,0,0,3946.346,6,4,2023-02-25T18:25:24.830-08:00,699071203.7006645,0,80.91,97.81409,1,0.7
2023-02-25T18:26:43.802-08:00,1677378403.359627,34.25712000934758,-118.5950534364217,298.0866,-1,-1,-1,-1,77.79964447021484,69.66666666666667,-9999,41287.90518354167,0.0886688232421875,-0.4901580810546875,-0.8688507080078125,41287.87293854167,0.2767024617347142,0.09568795678715177,0.5001753132022425,-0.01355031598359346,0.005236082244664431,-0.02493938803672791,-0.008718907833099365,-0.0119977593421936,-0.003285706043243408,XArbitraryZVertical,0.2384530842461931,0.07998733311982617,0.1451903266266293,0.9569022989247247,0.08383796364068985,-0.4795793890953064,-0.8734843134880066,0,0,0,-1,-1,41285.18129825001,unknown,2,2023-02-25T18:26:41.090-08:00,2023-02-23T12:03:25.234-08:00,4999,1.574048,0,0,3946.346,6,4,2023-02-25T18:25:24.830-08:00,699071203.7006645,0,80.91,97.81409,1,0.7
2023-02-25T18:26:43.836-08:00,1677378403.359627,34.25712000934758,-118.5950534364217,298.0866,-1,-1,-1,-1,77.79964447021484,69.66666666666667,-9999,41287.93869954167,0.075927734375,-0.46826171875,-0.8624420166015625,41287.93250454167,0.2767634718893867,0.09722591436085394,0.4990577163049134,-0.04392566531896591,0.01750579848885536,-0.02464856952428818,-0.007276028394699097,0.007330715656280518,0.01109427213668823,XArbitraryZVertical,0.2378023314959294,0.08066246502947623,0.1453958096624447,0.9569763728955243,0.08523321896791458,-0.4785983860492706,-0.8738872408866882,0,0,0,-1,-1,41285.18129825001,unknown,2,2023-02-25T18:26:41.090-08:00,2023-02-23T12:03:25.234-08:00,4999,1.574048,0,0,3946.346,6,4,2023-02-25T18:25:24.830-08:00,699071203.7006645,0,80.91,97.81409,1,0.7
2023-02-25T18:26:43.871-08:00,1677378403.359627,34.25712000934758,-118.5950534364217,298.0866,-1,-1,-1,-1,77.79964447021484,69.66666666666667,-9999,41287.97221554167,0.0858612060546875,-0.487518310546875,-0.864013671875,41287.93250454167,0.2767634718893867,0.09722591436085394,0.4990577163049134,-0.04392566531896591,0.01750579848885536,-0.02464856952428818,-0.007276028394699097,0.007330715656280518,0.01109427213668823,XArbitraryZVertical,0.2378023314959294,0.08066246502947623,0.1453958096624447,0.9569763728955243,0.08523321896791458,-0.4785983860492706,-0.8738872408866882,0,0,0,-1,-1,41285.18129825001,unknown,2,2023-02-25T18:26:41.090-08:00,2023-02-23T12:03:25.234-08:00,4999,1.574048,0,0,3946.346,6,4,2023-02-25T18:25:24.830-08:00,699071203.7006645,0,80.91,97.81409,1,0.7
2023-02-25T18:26:43.905-08:00,1677378403.359627,34.25712000934758,-118.5950534364217,298.0866,-1,-1,-1,-1,77.79964447021484,69.66666666666667,-9999,41288.00573154167,0.088165283203125,-0.46868896484375,-0.856689453125,41287.99207054167,0.2764158996232717,0.09834112312974322,0.4978142158896266,-0.04129945486783981,0.01856653392314911,0.002732720924541354,-0.006401553750038147,0.00571972131729126,0.02065396308898926,XArbitraryZVertical,0.2371382369436556,0.0810793221819659,0.1453538682508076,0.9571122069356012,0.08626610040664673,-0.4775061905384064,-0.8743832111358643,0,0,0,-1,-1,41285.18129825001,unknown,2,2023-02-25T18:26:41.090-08:00,2023-02-23T12:03:25.234-08:00,4999,1.574048,0,0,3946.346,6,4,2023-02-25T18:25:24.830-08:00,699071203.7006645,0,80.91,97.81409,1,0.7
2023-02-25T18:26:43.935-08:00,1677378403.359627,34.25712000934758,-118.5950534364217,298.0866,-1,-1,-1,-1,77.79964447021484,69.66666666666667,-9999,41288.03920754167,0.0823974609375,-0.460723876953125,-0.8715972900390625,41287.99207054167,0.2764158996232717,0.09834112312974322,0.4978142158896266,-0.04129945486783981,0.01856653392314911,0.002732720924541354,-0.006401553750038147,0.00571972131729126,0.02065396308898926,XArbitraryZVertical,0.2371382369436556,0.0810793221819659,0.1453538682508076,0.9571122069356012,0.08626610040664673,-0.4775061905384064,-0.8743832111358643,0,0,0,-1,-1,41285.18129825001,unknown,2,2023-02-25T18:26:41.090-08:00,2023-02-23T12:03:25.234-08:00,4999,1.574048,0,0,3946.346,6,4,2023-02-25T18:25:24.830-08:00,699071203.7006645,0,80.91,97.81409,1,0.7
2023-02-25T18:26:43.970-08:00,1677378403.359627,34.25712000934758,-118.5950534364217,298.0866,-1,-1,-1,-1,77.79964447021484,69.66666666666667,-9999,41288.07272354167,0.084442138671875,-0.4759368896484375,-0.8694000244140625,41288.05163654167,0.2780673353886355,0.09675958136898523,0.4961915629493677,-0.02979110367596149,-0.0366157591342926,0.03598321974277496,-0.005230650305747986,0.01335710287094116,0.003599762916564941,XArbitraryZVertical,0.2364074575647239,0.08041901674608369,0.1459465661721931,0.9572584931714125,0.08495786041021347,-0.4760798513889313,-0.8752886056900024,0,0,0,-1,-1,41285.18129825001,unknown,2,2023-02-25T18:26:41.090-08:00,2023-02-23T12:03:25.234-08:00,4999,1.574048,0,0,3946.346,6,4,2023-02-25T18:25:24.830-08:00,699071203.7006645,0,80.91,97.81409,1,0.7
2023-02-25T18:26:44.005-08:00,1677378403.359627,34.25712000934758,-118.5950534364217,298.0866,-1,-1,-1,-1,77.79964447021484,69.66666666666667,-9999,41288.10623954167,0.0833587646484375,-0.489044189453125,-0.8725433349609375,41288.05163654167,0.2780673353886355,0.09675958136898523,0.4961915629493677,-0.02979110367596149,-0.0366157591342926,0.03598321974277496,-0.005230650305747986,0.01335710287094116,0.003599762916564941,XArbitraryZVertical,0.2364074575647239,0.08041901674608369,0.1459465661721931,0.9572584931714125,0.08495786041021347,-0.4760798513889313,-0.8752886056900024,0,0,0,-1,-1,41285.18129825001,unknown,2,2023-02-25T18:26:41.090-08:00,2023-02-23T12:03:25.234-08:00,4999,1.574048,0,0,3946.346,6,4,2023-02-25T18:25:24.830-08:00,699071203.7006645,0,80.91,97.81409,1,0.7
2023-02-25T18:26:44.039-08:00,1677378403.359627,34.25712000934758,-118.5950534364217,298.0866,-1,-1,-1,-1,77.79964447021484,69.66666666666667,-9999,41288.13975554167,0.0846710205078125,-0.464111328125,-0.888519287109375,41288.11120354167,0.280914488522829,0.09312639171588459,0.4945605321143461,-0.0826602429151535,-0.03455021232366562,0.02758573926985264,0.001326397061347961,-0.01366683840751648,0.002523124217987061,XArbitraryZVertical,0.2357766522198808,0.07891542616818667,0.1468711800143835,0.9573977737982056,0.08184931427240372,-0.4746448993682861,-0.8763634562492371,0,0,0,-1,-1,41285.18129825001,unknown,2,2023-02-25T18:26:41.090-08:00,2023-02-23T12:03:25.234-08:00,4999,1.574048,0,0,3946.346,6,4,2023-02-25T18:25:24.830-08:00,699071203.7006645,0,80.91,97.81409,1,0.7
2023-02-25T18:26:44.070-08:00,1677378403.359627,34.25712000934758,-118.5950534364217,298.0866,-1,-1,-1,-1,77.79964447021484,69.66666666666667,-9999,41288.17323154167,0.0748138427734375,-0.493316650390625,-0.8802947998046875,41288.11120354167,0.280914488522829,0.09312639171588459,0.4945605321143461,-0.0826602429151535,-0.03455021232366562,0.02758573926985264,0.001326397061347961,-0.01366683840751648,0.002523124217987061,XArbitraryZVertical,0.2357766522198808,0.07891542616818667,0.1468711800143835,0.9573977737982056,0.08184931427240372,-0.4746448993682861,-0.8763634562492371,0,0,0,-1,-1,41285.18129825001,unknown,2,2023-02-25T18:26:41.090-08:00,2023-02-23T12:03:25.234-08:00,4999,1.574048,0,0,3946.346,6,4,2023-02-25T18:25:24.830-08:00,699071203.7006645,0,80.91,97.81409,1,0.7
2023-02-25T18:26:44.104-08:00,1677378403.359627,34.25712000934758,-118.5950534364217,298.0866,-1,-1,-1,-1,77.79964447021484,69.66666666666667,-9999,41288.20674754167,0.08905029296875,-0.4805145263671875,-0.879547119140625,41288.17076954167,0.2815625552176945,0.09180963825308248,0.4906123568424149,-0.08746511489152908,0.01575982943177223,-0.03401637077331543,-0.006540872156620026,-0.01810690760612488,-0.001995563507080078,XArbitraryZVertical,0.2339512449954946,0.07811502178865593,0.1470066368886979,0.9578902843285722,0.08086647093296051,-0.4711661040782928,-0.8783296942710876,0,0,0,-1,-1,41285.18129825001,unknown,2,2023-02-25T18:26:41.090-08:00,2023-02-23T12:03:25.234-08:00,4999,1.574048,0,0,3946.346,6,4,2023-02-25T18:25:24.830-08:00,699071203.7006645,0,80.91,97.81409,1,0.7
2023-02-25T18:26:44.139-08:00,1677378403.359627,34.25712000934758,-118.5950534364217,298.0866,-1,-1,-1,-1,77.79964447021484,69.66666666666667,-9999,41288.24026354167,0.0915069580078125,-0.475830078125,-0.876861572265625,41288.23033554167,0.2809556102244891,0.09415717023454577,0.487588013606825,0.01107699982821941,0.04449134320020676,-0.001329665072262287,-3.862380981445312e-05,0.0001888871192932129,-0.003611326217651367,XArbitraryZVertical,0.2323490316471095,0.07898021177073063,0.1469733010769649,0.9582144121004367,0.08306174725294113,-0.4684963524341583,-0.8795521259307861,0,0,0,-1,-1,41285.18129825001,unknown,2,2023-02-25T18:26:41.090-08:00,2023-02-23T12:03:25.234-08:00,4999,1.574048,0,0,3946.346,6,4,2023-02-25T18:25:24.830-08:00,699071203.7006645,0,80.91,97.81409,1,0.7
2023-02-25T18:26:44.173-08:00,1677378403.359627,34.25712000934758,-118.5950534364217,298.0866,-1,-1,-1,-1,77.79964447021484,69.66666666666667,-9999,41288.27377954167,0.0728302001953125,-0.4651031494140625,-0.8603668212890625,41288.23033554167,0.2809556102244891,0.09415717023454577,0.487588013606825,0.01107699982821941,0.04449134320020676,-0.001329665072262287,-3.862380981445312e-05,0.0001888871192932129,-0.003611326217651367,XArbitraryZVertical,0.2323490316471095,0.07898021177073063,0.1469733010769649,0.9582144121004367,0.08306174725294113,-0.4684963524341583,-0.8795521259307861,0,0,0,-1,-1,41285.18129825001,unknown,2,2023-02-25T18:26:41.090-08:00,2023-02-23T12:03:25.234-08:00,4999,1.574048,0,0,3946.346,6,4,2023-02-25T18:25:24.830-08:00,699071203.7006645,0,80.91,97.81409,1,0.7
2023-02-25T18:26:44.208-08:00,1677378403.359627,34.25712000934758,-118.5950534364217,298.0866,-1,-1,-1,-1,77.79964447021484,69.66666666666667,-9999,41288.30725554167,0.072906494140625,-0.46875,-0.847625732421875,41288.28990254167,0.2794967576152046,0.09627645837627151,0.4868313194465764,-0.05534986034035683,0.021180160343647,-0.04708103835582733,0.0008253157138824463,-0.007300436496734619,0.02103835344314575,XArbitraryZVertical,0.2318876477136194,0.07977939577769999,0.1465156896865504,0.9583301163402744,0.08495964109897614,-0.467827707529068,-0.8797267079353333,0,0,0,-1,-1,41285.18129825001,unknown,2,2023-02-25T18:26:41.090-08:00,2023-02-23T12:03:25.234-08:00,4999,1.574048,0,0,3946.346,6,4,2023-02-25T18:25:24.830-08:00,699071203.7006645,0,80.91,97.81409,1,0.7
2023-02-25T18:26:44.239-08:00,1677378403.359627,34.25712000934758,-118.5950534364217,298.0866,-1,-1,-1,-1,77.79964447021484,69.66666666666667,-9999,41288.34077154167,0.061553955078125,-0.4668426513671875,-0.81500244140625,41288.28990254167,0.2794967576152046,0.09627645837627151,0.4868313194465764,-0.05534986034035683,0.021180160343647,-0.04708103835582733,0.0008253157138824463,-0.007300436496734619,0.02103835344314575,XArbitraryZVertical,0.2318876477136194,0.07977939577769999,0.1465156896865504,0.9583301163402744,0.08495964109897614,-0.467827707529068,-0.8797267079353333,0,0,0,-1,-1,41285.18129825001,unknown,2,2023-02-25T18:26:41.090-08:00,2023-02-23T12:03:25.234-08:00,4999,1.574048,0,0,3946.346,6,4,2023-02-25T18:25:24.830-08:00,699071203.7006645,0,80.91,97.81409,1,0.7
2023-02-25T18:26:44.273-08:00,1677378403.359627,34.25712000934758,-118.5950534364217,298.0866,-1,-1,-1,-1,77.79964447021484,69.66666666666667,-9999,41288.37428754167,0.0366363525390625,-0.46539306640625,-0.766387939453125,41288.34946854167,0.2752785980132054,0.09784012747353642,0.4789770734924336,-0.2382033616304398,-0.01685244217514992,-0.1104083508253098,-0.03534552454948425,-0.007435858249664307,0.06985270977020264,XArbitraryZVertical,0.2281634441554014,0.07956254897169376,0.1446195464491557,0.9595292655464653,0.08669140189886093,-0.4608716070652008,-0.8832224607467651,0,0,0,-1,-1,41285.18129825001,unknown,2,2023-02-25T18:26:41.090-08:00,2023-02-23T12:03:25.234-08:00,4999,1.574048,0,0,3946.346,6,4,2023-02-25T18:25:24.830-08:00,699071203.7006645,0,80.91,97.81409,1,0.7
2023-02-25T18:26:44.307-08:00,1677378403.359627,34.25712000934758,-118.5950534364217,298.0866,-1,-1,-1,-1,77.79964447021484,69.66666666666667,-9999,41288.40780354167,-0.0708770751953125,-0.489532470703125,-0.6624908447265625,41288.34946854167,0.2752785980132054,0.09784012747353642,0.4789770734924336,-0.2382033616304398,-0.01685244217514992,-0.1104083508253098,-0.03534552454948425,-0.007435858249664307,0.06985270977020264,XArbitraryZVertical,0.2281634441554014,0.07956254897169376,0.1446195464491557,0.9595292655464653,0.08669140189886093,-0.4608716070652008,-0.8832224607467651,0,0,0,-1,-1,41285.18129825001,unknown,2,2023-02-25T18:26:41.090-08:00,2023-02-23T12:03:25.234-08:00,4999,1.574048,0,0,3946.346,6,4,2023-02-25T18:25:24.830-08:00,699071203.7006645,0,80.91,97.81409,1,0.7
2023-02-25T18:26:44.338-08:00,1677378403.359627,34.25712000934758,-118.5950534364217,298.0866,-1,-1,-1,-1,77.79964447021484,69.66666666666667,-9999,41288.44127954167,-0.10552978515625,-0.478271484375,-0.5521697998046875,41288.40903454167,0.2656086068926266,0.09520037481862074,0.4447220287886606,-1.008020401000977,-0.1722295135259628,-0.3243515491485596,-0.1566875427961349,-0.05932548642158508,0.2361517548561096,XArbitraryZVertical,0.2121981634151495,0.0751706931588237,0.1394089178088871,0.9643062582137195,0.08581050485372543,-0.4302069544792175,-0.8986425995826721,0,0,0,-1,-1,41285.18129825001,unknown,2,2023-02-25T18:26:41.090-08:00,2023-02-23T12:03:25.234-08:00,4999,1.574048,0,0,3946.346,6,4,2023-02-25T18:25:24.830-08:00,699071203.7006645,0,80.91,97.81409,1,0.7
2023-02-25T18:26:44.372-08:00,1677378403.359627,34.25712000934758,-118.5950534364217,298.0866,-1,-1,-1,-1,77.79964447021484,69.66666666666667,-9999,41288.47479554167,-0.117431640625,-0.475738525390625,-0.5299072265625,41288.46860154167,0.237320535454415,0.08871614352170221,0.3470100986798467,-2.633174896240234,-0.3596857190132141,-0.7024863362312317,-0.2136439830064774,-0.1622163951396942,0.4335368871688843,XArbitraryZVertical,0.1660826066977915,0.06378748452052685,0.1240913449095936,0.9761910178912176,0.08331871032714844,-0.3400876522064209,-0.9366954565048218,0,0,0,-1,-1,41285.18129825001,unknown,2,2023-02-25T18:26:41.090-08:00,2023-02-23T12:03:25.234-08:00,4999,1.574048,0,0,3946.346,6,4,2023-02-25T18:25:24.830-08:00,699071203.7006645,0,80.91,97.81409,1,0.7
2023-02-25T18:26:44.407-08:00,1677378403.359627,34.25712000934758,-118.5950534364217,298.0866,-1,-1,-1,-1,77.79964447021484,69.66666666666667,-9999,41288.50831154167,-0.11846923828125,-0.1770477294921875,-0.520599365234375,41288.46860154167,0.237320535454415,0.08871614352170221,0.3470100986798467,-2.633174896240234,-0.3596857190132141,-0.7024863362312317,-0.2136439830064774,-0.1622163951396942,0.4335368871688843,XArbitraryZVertical,0.1660826066977915,0.06378748452052685,0.1240913449095936,0.9761910178912176,0.08331871032714844,-0.3400876522064209,-0.9366954565048218,0,0,0,-1,-1,41285.18129825001,unknown,2,2023-02-25T18:26:41.090-08:00,2023-02-23T12:03:25.234-08:00,4999,1.574048,0,0,3946.346,6,4,2023-02-25T18:25:24.830-08:00,699071203.7006645,0,80.91,97.81409,1,0.7
2023-02-25T18:26:44.441-08:00,1677378403.359627,34.25712000934758,-118.5950534364217,298.0866,-1,-1,-1,-1,77.79964447021484,69.66666666666667,-9999,41288.54182854167,-0.1855010986328125,-0.1796722412109375,-0.5426483154296875,41288.52816754167,0.1972874155944294,0.06364144583582503,0.1902630567083302,-1.905594706535339,-0.8991747498512268,-1.082147717475891,-0.2255519926548004,0.04452493786811829,0.4603590965270996,XArbitraryZVertical,0.09135935194161969,0.04086758631318518,0.1009962648390032,0.9898399028438269,0.0624508298933506,-0.1891172081232071,-0.9799666404724121,0,0,0,-1,-1,41285.18129825001,unknown,2,2023-02-25T18:26:41.090-08:00,2023-02-23T12:03:25.234-08:00,4999,1.574048,0,0,3946.346,6,4,2023-02-25T18:25:24.830-08:00,699071203.7006645,0,80.91,97.81409,1,0.7
2023-02-25T18:26:44.472-08:00,1677378403.359627,34.25712000934758,-118.5950534364217,298.0866,-1,-1,-1,-1,77.79964447021484,69.66666666666667,-9999,41288.57530454167,-0.1393280029296875,-0.1211395263671875,-0.6572113037109375,41288.52816754167,0.1972874155944294,0.06364144583582503,0.1902630567083302,-1.905594706535339,-0.8991747498512268,-1.082147717475891,-0.2255519926548004,0.04452493786811829,0.4603590965270996,XArbitraryZVertical,0.09135935194161969,0.04086758631318518,0.1009962648390032,0.9898399028438269,0.0624508298933506,-0.1891172081232071,-0.9799666404724121,0,0,0,-1,-1,41285.18129825001,unknown,2,2023-02-25T18:26:41.090-08:00,2023-02-23T12:03:25.234-08:00,4999,1.574048,0,0,3946.346,6,4,2023-02-25T18:25:24.830-08:00,699071203.7006645,0,80.91,97.81409,1,0.7
2023-02-25T18:26:44.507-08:00,1677378403.359627,34.25712000934758,-118.5950534364217,298.0866,-1,-1,-1,-1,77.79964447021484,69.66666666666667,-9999,41288.60882054167,-0.2845611572265625,0.1227874755859375,-0.6843414306640625,41288.58773354167,0.1264317319773987,0.004679066717358636,0.05417959274823685,-2.349493503570557,-1.351179003715515,-1.508472084999084,-0.1934081017971039,0.06257596611976624,0.353761613368988,XArbitraryZVertical,0.02688456261182569,0.004045152100719027,0.06321366222535368,0.9976296236947093,0.004672183655202389,-0.05415308848023415,-0.9985216856002808,0,0,0,-1,-1,41285.18129825001,unknown,2,2023-02-25T18:26:41.090-08:00,2023-02-23T12:03:25.234-08:00,4999,1.574048,0,0,3946.346,6,4,2023-02-25T18:25:24.830-08:00,699071203.7006645,0,80.91,97.81409,1,0.7
2023-02-25T18:26:44.541-08:00,1677378403.359627,34.25712000934758,-118.5950534364217,298.0866,-1,-1,-1,-1,77.79964447021484,69.66666666666667,-9999,41288.64233654167,-0.2943115234375,0.2302093505859375,-0.76300048828125,41288.58773354167,0.1264317319773987,0.004679066717358636,0.05417959274823685,-2.349493503570557,-1.351179003715515,-1.508472084999084,-0.1934081017971039,0.06257596611976624,0.353761613368988,XArbitraryZVertical,0.02688456261182569,0.004045152100719027,0.06321366222535368,0.9976296236947093,0.004672183655202389,-0.05415308848023415,-0.9985216856002808,0,0,0,-1,-1,41285.18129825001,unknown,2,2023-02-25T18:26:41.090-08:00,2023-02-23T12:03:25.234-08:00,4999,1.574048,0,0,3946.346,6,4,2023-02-25T18:25:24.830-08:00,699071203.7006645,0,80.91,97.81409,1,0.7
2023-02-25T18:26:44.576-08:00,1677378403.359627,34.25712000934758,-118.5950534364217,298.0866,-1,-1,-1,-1,77.79964447021484,69.66666666666667,-9999,41288.67585254167,-0.3966217041015625,0.20941162109375,-0.847564697265625,41288.64730054167,0.02724297339965531,-0.09551094471525309,-0.02886528324665655,-1.022873282432556,-1.956167459487915,-1.588209629058838,-0.200770691037178,0.2040946781635284,0.2203999161720276,XArbitraryZVertical,-0.01376418376841942,-0.04792427883465178,0.01429300696505842,0.9986538732023563,-0.09532607346773148,0.0288612749427557,-0.9950276017189026,0,0,0,-1,-1,41285.18129825001,unknown,2,2023-02-25T18:26:41.090-08:00,2023-02-23T12:03:25.234-08:00,4999,1.574048,0,0,3946.346,6,4,2023-02-25T18:25:24.830-08:00,699071203.7006645,0,80.91,97.81409,1,0.7
2023-02-25T18:26:44.606-08:00,1677378403.359627,34.25712000934758,-118.5950534364217,298.0866,-1,-1,-1,-1,77.79964447021484,69.66666666666667,-9999,41288.70932854167,-0.518341064453125,0.205657958984375,-0.793548583984375,41288.64730054167,0.02724297339965531,-0.09551094471525309,-0.02886528324665655,-1.022873282432556,-1.956167459487915,-1.588209629058838,-0.200770691037178,0.2040946781635284,0.2203999161720276,XArbitraryZVertical,-0.01376418376841942,-0.04792427883465178,0.01429300696505842,0.9986538732023563,-0.09532607346773148,0.0288612749427557,-0.9950276017189026,0,0,0,-1,-1,41285.18129825001,unknown,2,2023-02-25T18:26:41.090-08:00,2023-02-23T12:03:25.234-08:00,4999,1.574048,0,0,3946.346,6,4,2023-02-25T18:25:24.830-08:00,699071203.7006645,0,80.91,97.81409,1,0.7
2023-02-25T18:26:44.640-08:00,1677378403.359627,34.25712000934758,-118.5950534364217,298.0866,-1,-1,-1,-1,77.79964447021484,69.66666666666667,-9999,41288.74284454167,-0.6221923828125,0.3835601806640625,-0.7540130615234375,41288.70686654167,-0.08613168303031836,-0.23475666291911,-0.08537593975830068,-1.772023677825928,-2.436572074890137,-1.845784068107605,-0.2801731824874878,0.1141906455159187,0.1571999788284302,XArbitraryZVertical,-0.04737931168081426,-0.1150691894064543,-0.03772434545867998,0.9915095392928462,-0.23175910115242,0.08527226001024246,-0.9690285921096802,0,0,0,-1,-1,41285.18129825001,unknown,2,2023-02-25T18:26:41.090-08:00,2023-02-23T12:03:25.234-08:00,4999,1.574048,0,0,3946.346,6,4,2023-02-25T18:25:24.830-08:00,699071203.7006645,0,80.91,97.81409,1,0.7
2023-02-25T18:26:44.675-08:00,1677378404.564249,34.25725605472785,-118.5949916424127,298.087,-1,-1,-1,-1,77.79964447021484,40,-9999,41288.77636054167,-0.5914459228515625,0.4351348876953125,-0.8222503662109375,41288.76643254167,-0.2395470532436429,-0.3881849146957124,-0.1842464494744,-2.71191668510437,-2.17324161529541,-1.970311880111694,-0.2246838808059692,0.2957523465156555,0.0969279408454895,XArbitraryZVertical,-0.1125674837907,-0.1798966937382962,-0.09913047653203383,0.972182515887455,-0.3721025884151459,0.183205783367157,-0.909931480884552,0,0,0,-1,-1,41285.18129825001,unknown,2,2023-02-25T18:26:41.090-08:00,2023-02-23T12:03:25.234-08:00,4999,1.574048,0,0,3946.346,6,4,2023-02-25T18:25:24.830-08:00,699071203.7006645,0,80.91,97.81409,1,0.7
2023-02-25T18:26:44.722-08:00,1677378404.564249,34.25725605472785,-118.5949916424127,298.087,-1,-1,-1,-1,77.79964447021484,40,-9999,41288.80987775001,-0.7201080322265625,0.2695770263671875,-0.6337738037109375,41288.76643254167,-0.2395470532436429,-0.3881849146957124,-0.1842464494744,-2.71191668510437,-2.17324161529541,-1.970311880111694,-0.2246838808059692,0.2957523465156555,0.0969279408454895,XArbitraryZVertical,-0.1125674837907,-0.1798966937382962,-0.09913047653203383,0.972182515887455,-0.3721025884151459,0.183205783367157,-0.909931480884552,0,0,0,-1,-1,41285.18129825001,unknown,2,2023-02-25T18:26:41.090-08:00,2023-02-23T12:03:25.234-08:00,4999,1.574048,0,0,3946.346,6,4,2023-02-25T18:25:24.830-08:00,699071203.7006645,0,80.91,97.81409,1,0.7
2023-02-25T18:26:44.739-08:00,1677378404.564249,34.25725605472785,-118.5949916424127,298.087,-1,-1,-1,-1,77.79964447021484,40,-9999,41288.84335375,-0.918975830078125,0.4127960205078125,-0.49127197265625,41288.82599975,-0.4583699263021357,-0.5917171912886454,-0.2931892840846569,-4.12839412689209,-2.72060489654541,-2.705184698104858,-0.3167538642883301,-0.03038564324378967,0.2663373947143555,XArbitraryZVertical,-0.2015977662562894,-0.2491490468971709,-0.1735075846765697,0.9312240488969485,-0.5339846611022949,0.2890068888664246,-0.7945662140846252,0,0,0,-1,-1,41285.18129825001,unknown,2,2023-02-25T18:26:41.090-08:00,2023-02-23T12:03:25.234-08:00,4999,1.574048,0,0,3946.346,6,4,2023-02-25T18:25:24.830-08:00,699071203.7006645,0,80.91,97.81409,1,0.7
2023-02-25T18:26:44.774-08:00,1677378404.564249,34.25725605472785,-118.5949916424127,298.087,-1,-1,-1,-1,77.79964447021484,40,-9999,41288.87686975001,-1.059799194335938,0.5568084716796875,-0.4483489990234375,41288.82599975,-0.4583699263021357,-0.5917171912886454,-0.2931892840846569,-4.12839412689209,-2.72060489654541,-2.705184698104858,-0.3167538642883301,-0.03038564324378967,0.2663373947143555,XArbitraryZVertical,-0.2015977662562894,-0.2491490468971709,-0.1735075846765697,0.9312240488969485,-0.5339846611022949,0.2890068888664246,-0.7945662140846252,0,0,0,-1,-1,41285.18129825001,unknown,2,2023-02-25T18:26:41.090-08:00,2023-02-23T12:03:25.234-08:00,4999,1.574048,0,0,3946.346,6,4,2023-02-25T18:25:24.830-08:00,699071203.7006645,0,80.91,97.81409,1,0.7
2023-02-25T18:26:44.809-08:00,1677378404.564249,34.25725605472785,-118.5949916424127,298.087,-1,-1,-1,-1,77.79964447021484,40,-9999,41288.91038575,-1.175155639648438,0.44622802734375,-0.250946044921875,41288.88556675,-0.7973823606222379,-0.8591768195520169,-0.3756893042188887,-5.051249027252197,-2.807575464248657,-3.503052473068237,-0.3909415006637573,0.1705312728881836,0.1530913114547729,XArbitraryZVertical,-0.3153035287546667,-0.3111704074912444,-0.2750526322076001,0.8532894101530452,-0.7044869661331177,0.3669138550758362,-0.6075133085250854,0,0,0,-1,-1,41285.18129825001,unknown,2,2023-02-25T18:26:41.090-08:00,2023-02-23T12:03:25.234-08:00,4999,1.574048,0,0,3946.346,6,4,2023-02-25T18:25:24.830-08:00,699071203.7006645,0,80.91,97.81409,1,0.7
2023-02-25T18:26:44.844-08:00,1677378404.564249,34.25725605472785,-118.5949916424127,298.087,-1,-1,-1,-1,77.79964447021484,40,-9999,41288.94390175,-1.94390869140625,0.6908416748046875,-0.167510986328125,41288.88556675,-0.7973823606222379,-0.8591768195520169,-0.3756893042188887,-5.051249027252197,-2.807575464248657,-3.503052473068237,-0.3909415006637573,0.1705312728881836,0.1530913114547729,XArbitraryZVertical,-0.3153035287546667,-0.3111704074912444,-0.2750526322076001,0.8532894101530452,-0.7044869661331177,0.3669138550758362,-0.6075133085250854,0,0,0,-1,-1,41285.18129825001,unknown,2,2023-02-25T18:26:41.090-08:00,2023-02-23T12:03:25.234-08:00,4999,1.574048,0,0,3946.346,6,4,2023-02-25T18:25:24.830-08:00,699071203.7006645,0,80.91,97.81409,1,0.7
2023-02-25T18:26:44.878-08:00,1677378404.564249,34.25725605472785,-118.5949916424127,298.087,-1,-1,-1,-1,77.79964447021484,40,-9999,41288.97737775,-1.284408569335938,0.8708038330078125,-0.044189453125,41288.94513275,-1.227532749881445,-1.171295353463121,-0.3754075973131833,-6.525007247924805,-1.176647901535034,-3.392117500305176,-1.086811304092407,0.3241899311542511,0.1943598985671997,XArbitraryZVertical,-0.4398831510535279,-0.3543548553090706,-0.3872223736043501,0.7286935472105459,-0.8570973873138428,0.3666517734527588,-0.3618709146976471,0,0,0,-1,-1,41285.18129825001,unknown,2,2023-02-25T18:26:41.090-08:00,2023-02-23T12:03:25.234-08:00,4999,1.574048,0,0,3946.346,6,4,2023-02-25T18:25:24.830-08:00,699071203.7006645,0,80.91,97.81409,1,0.7
2023-02-25T18:26:44.908-08:00,1677378404.564249,34.25725605472785,-118.5949916424127,298.087,-1,-1,-1,-1,77.79964447021484,40,-9999,41289.01089375,-1.56561279296875,0.938568115234375,-0.07855224609375,41289.00469875,-1.679241468213455,-1.327773565509181,-0.2844533707137363,-6.108003616333008,-0.3511164486408234,-2.554166078567505,-0.4792928695678711,0.7396919131278992,0.127543568611145,XArbitraryZVertical,-0.528596533855781,-0.32419417573548,-0.5220415721532214,0.5856248242902767,-0.9316110610961914,0.2806328237056732,-0.2309676855802536,0,0,0,-1,-1,41285.18129825001,unknown,2,2023-02-25T18:26:41.090-08:00,2023-02-23T12:03:25.234-08:00,4999,1.574048,0,0,3946.346,6,4,2023-02-25T18:25:24.830-08:00,699071203.7006645,0,80.91,97.81409,1,0.7
2023-02-25T18:26:44.943-08:00,1677378404.564249,34.25725605472785,-118.5949916424127,298.087,-1,-1,-1,-1,77.79964447021484,40,-9999,41289.04440975,-1.176284790039062,1.001205444335938,-0.195556640625,41289.00469875,-1.679241468213455,-1.327773565509181,-0.2844533707137363,-6.108003616333008,-0.3511164486408234,-2.554166078567505,-0.4792928695678711,0.7396919131278992,0.127543568611145,XArbitraryZVertical,-0.528596533855781,-0.32419417573548,-0.5220415721532214,0.5856248242902767,-0.9316110610961914,0.2806328237056732,-0.2309676855802536,0,0,0,-1,-1,41285.18129825001,unknown,2,2023-02-25T18:26:41.090-08:00,2023-02-23T12:03:25.234-08:00,4999,1.574048,0,0,3946.346,6,4,2023-02-25T18:25:24.830-08:00,699071203.7006645,0,80.91,97.81409,1,0.7
2023-02-25T18:26:44.977-08:00,1677378404.564249,34.25725605472785,-118.5949916424127,298.087,-1,-1,-1,-1,77.79964447021484,40,-9999,41289.07792575,-1.133392333984375,0.9464874267578125,-0.27728271484375,41289.06426575,-2.004960172747511,-1.38332301421101,-0.1953852551737733,-3.13694953918457,0.3255490958690643,-1.928290724754333,-0.06870126724243164,0.7464530467987061,-0.06388849020004272,XArbitraryZVertical,-0.5754266795766932,-0.2783319959923699,-0.6125424417195489,0.4649808690876683,-0.9637846350669861,0.1941444724798203,-0.1828308701515198,0,0,0,-1,-1,41285.18129825001,unknown,2,2023-02-25T18:26:41.090-08:00,2023-02-23T12:03:25.234-08:00,4999,1.574048,0,0,3946.346,6,4,2023-02-25T18:25:24.830-08:00,699071203.7006645,0,80.91,97.81409,1,0.7
2023-02-25T18:26:45.007-08:00,1677378404.564249,34.25725605472785,-118.5949916424127,298.087,-1,-1,-1,-1,77.79964447021484,40,-9999,41289.11140175,-0.9668121337890625,0.6648712158203125,-0.276153564453125,41289.06426575,-2.004960172747511,-1.38332301421101,-0.1953852551737733,-3.13694953918457,0.3255490958690643,-1.928290724754333,-0.06870126724243164,0.7464530467987061,-0.06388849020004272,XArbitraryZVertical,-0.5754266795766932,-0.2783319959923699,-0.6125424417195489,0.4649808690876683,-0.9637846350669861,0.1941444724798203,-0.1828308701515198,0,0,0,-1,-1,41285.18129825001,unknown,2,2023-02-25T18:26:41.090-08:00,2023-02-23T12:03:25.234-08:00,4999,1.574048,0,0,3946.346,6,4,2023-02-25T18:25:24.830-08:00,699071203.7006645,0,80.91,97.81409,1,0.7
2023-02-25T18:26:45.042-08:00,1677378404.564249,34.25725605472785,-118.5949916424127,298.087,-1,-1,-1,-1,77.79964447021484,40,-9999,41289.14491875,-0.959136962890625,0.5420684814453125,-0.2172698974609375,41289.12383175,-2.108542441834007,-1.395987362180524,-0.1348260717427598,-0.4900705218315125,-0.1434532552957535,-0.7140962481498718,0.0643085241317749,0.4695249199867249,-0.08257168531417847,XArbitraryZVertical,-0.5830559417045729,-0.2717994658276277,-0.6432902317148584,0.4151487115627291,-0.9758228063583374,0.1344179660081863,-0.1723416447639465,0,0,0,-1,-1,41285.18129825001,unknown,2,2023-02-25T18:26:41.090-08:00,2023-02-23T12:03:25.234-08:00,4999,1.574048,0,0,3946.346,6,4,2023-02-25T18:25:24.830-08:00,699071203.7006645,0,80.91,97.81409,1,0.7
2023-02-25T18:26:45.076-08:00,1677378404.564249,34.25725605472785,-118.5949916424127,298.087,-1,-1,-1,-1,77.79964447021484,40,-9999,41289.17843475,-0.9736175537109375,0.4395599365234375,-0.1499786376953125,41289.12383175,-2.108542441834007,-1.395987362180524,-0.1348260717427598,-0.4900705218315125,-0.1434532552957535,-0.7140962481498718,0.0643085241317749,0.4695249199867249,-0.08257168531417847,XArbitraryZVertical,-0.5830559417045729,-0.2717994658276277,-0.6432902317148584,0.4151487115627291,-0.9758228063583374,0.1344179660081863,-0.1723416447639465,0,0,0,-1,-1,41285.18129825001,unknown,2,2023-02-25T18:26:41.090-08:00,2023-02-23T12:03:25.234-08:00,4999,1.574048,0,0,3946.346,6,4,2023-02-25T18:25:24.830-08:00,699071203.7006645,0,80.91,97.81409,1,0.7
2023-02-25T18:26:45.111-08:00,1677378404.564249,34.25725605472785,-118.5949916424127,298.087,-1,-1,-1,-1,77.79964447021484,40,-9999,41289.21195075,-0.9049224853515625,0.37408447265625,-0.0962982177734375,41289.18339775,-2.126524599844292,-1.409543054067026,-0.1223516365593554,-0.5016267895698547,0.008188462816178799,0.133556917309761,0.01451456546783447,0.3084191083908081,0.01557154953479767,XArbitraryZVertical,-0.5877703209982955,-0.2735845477139599,-0.6452403958769414,0.4041563396263226,-0.9796481728553772,0.12204659730196,-0.1593550890684128,0,0,0,-1,-1,41285.18129825001,unknown,2,2023-02-25T18:26:41.090-08:00,2023-02-23T12:03:25.234-08:00,4999,1.574048,0,0,3946.346,6,4,2023-02-25T18:25:24.830-08:00,699071203.7006645,0,80.91,97.81409,1,0.7
2023-02-25T18:26:45.142-08:00,1677378404.564249,34.25725605472785,-118.5949916424127,298.087,-1,-1,-1,-1,77.79964447021484,40,-9999,41289.24542675,-0.8941497802734375,0.3421630859375,-0.0728607177734375,41289.18339775,-2.126524599844292,-1.409543054067026,-0.1223516365593554,-0.5016267895698547,0.008188462816178799,0.133556917309761,0.01451456546783447,0.3084191083908081,0.01557154953479767,XArbitraryZVertical,-0.5877703209982955,-0.2735845477139599,-0.6452403958769414,0.4041563396263226,-0.9796481728553772,0.12204659730196,-0.1593550890684128,0,0,0,-1,-1,41285.18129825001,unknown,2,2023-02-25T18:26:41.090-08:00,2023-02-23T12:03:25.234-08:00,4999,1.574048,0,0,3946.346,6,4,2023-02-25T18:25:24.830-08:00,699071203.7006645,0,80.91,97.81409,1,0.7
2023-02-25T18:26:45.176-08:00,1677378404.564249,34.25725605472785,-118.5949916424127,298.087,-1,-1,-1,-1,77.79964447021484,40,-9999,41289.27894275,-0.8529205322265625,0.3151702880859375,-0.0790557861328125,41289.24296475,-2.185417341651204,-1.405813193693336,-0.1578507098853646,-1.594953894615173,0.3703213632106781,0.6918521523475647,0.07803922891616821,0.1891785115003586,0.08754779398441315,XArbitraryZVertical,-0.5998465646559102,-0.243078580850872,-0.651861871583762,0.3951871592434412,-0.9741572737693787,0.1571960002183914,-0.1621938049793243,0,0,0,-1,-1,41285.18129825001,unknown,2,2023-02-25T18:26:41.090-08:00,2023-02-23T12:03:25.234-08:00,4999,1.574048,0,0,3946.346,6,4,2023-02-25T18:25:24.830-08:00,699071203.7006645,0,80.91,97.81409,1,0.7
2023-02-25T18:26:45.211-08:00,1677378404.564249,34.25725605472785,-118.5949916424127,298.087,-1,-1,-1,-1,77.79964447021484,40,-9999,41289.31245875001,-0.8691558837890625,0.3394012451171875,-0.1290130615234375,41289.30253075,-2.293508333892818,-1.397657561818441,-0.2265584330489341,-2.172179937362671,0.4804486632347107,0.941160261631012,0.1066505312919617,0.09817443788051605,0.06809544563293457,XArbitraryZVertical,-0.618193557860421,-0.1841206942039345,-0.6633973934460915,0.3792627836418931,-0.9598762392997742,0.2246252447366714,-0.1678725928068161,0,0,0,-1,-1,41285.18129825001,unknown,2,2023-02-25T18:26:41.090-08:00,2023-02-23T12:03:25.234-08:00,4999,1.574048,0,0,3946.346,6,4,2023-02-25T18:25:24.830-08:00,699071203.7006645,0,80.91,97.81409,1,0.7
2023-02-25T18:26:45.245-08:00,1677378404.564249,34.25725605472785,-118.5949916424127,298.087,-1,-1,-1,-1,77.79964447021484,40,-9999,41289.34597475,-0.9349517822265625,0.341064453125,-0.2326507568359375,41289.30253075,-2.293508333892818,-1.397657561818441,-0.2265584330489341,-2.172179937362671,0.4804486632347107,0.941160261631012,0.1066505312919617,0.09817443788051605,0.06809544563293457,XArbitraryZVertical,-0.618193557860421,-0.1841206942039345,-0.6633973934460915,0.3792627836418931,-0.9598762392997742,0.2246252447366714,-0.1678725928068161,0,0,0,-1,-1,41285.18129825001,unknown,2,2023-02-25T18:26:41.090-08:00,2023-02-23T12:03:25.234-08:00,4999,1.574048,0,0,3946.346,6,4,2023-02-25T18:25:24.830-08:00,699071203.7006645,0,80.91,97.81409,1,0.7
2023-02-25T18:26:45.275-08:00,1677378404.564249,34.25725605472785,-118.5949916424127,298.087,-1,-1,-1,-1,77.79964447021484,40,-9999,41289.37945075001,-0.8734130859375,0.307220458984375,-0.26763916015625,41289.36209675,-2.397826172091867,-1.399903877761629,-0.2994070078301556,-1.522352814674377,0.4384351670742035,0.7356595396995544,0.0283392071723938,0.04954400658607483,-0.09308861196041107,XArbitraryZVertical,-0.6348875102088665,-0.1251791222144756,-0.6697085899570067,0.3643328204606154,-0.9415929913520813,0.2949536442756653,-0.1624960750341415,0,0,0,-1,-1,41285.18129825001,unknown,2,2023-02-25T18:26:41.090-08:00,2023-02-23T12:03:25.234-08:00,4999,1.574048,0,0,3946.346,6,4,2023-02-25T18:25:24.830-08:00,699071203.7006645,0,80.91,97.81409,1,0.7
2023-02-25T18:26:45.310-08:00,1677378404.564249,34.25725605472785,-118.5949916424127,298.087,-1,-1,-1,-1,77.79964447021484,40,-9999,41289.41296675,-0.822418212890625,0.318603515625,-0.28204345703125,41289.36209675,-2.397826172091867,-1.399903877761629,-0.2994070078301556,-1.522352814674377,0.4384351670742035,0.7356595396995544,0.0283392071723938,0.04954400658607483,-0.09308861196041107,XArbitraryZVertical,-0.6348875102088665,-0.1251791222144756,-0.6697085899570067,0.3643328204606154,-0.9415929913520813,0.2949536442756653,-0.1624960750341415,0,0,0,-1,-1,41285.18129825001,unknown,2,2023-02-25T18:26:41.090-08:00,2023-02-23T12:03:25.234-08:00,4999,1.574048,0,0,3946.346,6,4,2023-02-25T18:25:24.830-08:00,699071203.7006645,0,80.91,97.81409,1,0.7
2023-02-25T18:26:45.345-08:00,1677378404.564249,34.25725605472785,-118.5949916424127,298.087,-1,-1,-1,-1,77.79964447021484,40,-9999,41289.44648275001,-0.8136749267578125,0.2618560791015625,-0.40228271484375,41289.42166375,-2.475317322169466,-1.403504156012044,-0.3365207096403089,-1.136463761329651,0.347129225730896,0.09416143596172333,0.109732449054718,0.01299569010734558,-0.1288834065198898,XArbitraryZVertical,-0.6432726597390921,-0.08725673313055993,-0.6761786464036761,0.348380453951902,-0.9307315349578857,0.330204963684082,-0.1571730971336365,0,0,0,-1,-1,41285.18129825001,unknown,2,2023-02-25T18:26:41.090-08:00,2023-02-23T12:03:25.234-08:00,4999,1.574048,0,0,3946.346,6,4,2023-02-25T18:25:24.830-08:00,699071203.7006645,0,80.91,97.81409,1,0.7
2023-02-25T18:26:45.379-08:00,1677378404.564249,34.25725605472785,-118.5949916424127,298.087,-1,-1,-1,-1,77.79964447021484,40,-9999,41289.47999875,-0.7546234130859375,0.187835693359375,-0.4754638671875,41289.42166375,-2.475317322169466,-1.403504156012044,-0.3365207096403089,-1.136463761329651,0.347129225730896,0.09416143596172333,0.109732449054718,0.01299569010734558,-0.1288834065198898,XArbitraryZVertical,-0.6432726597390921,-0.08725673313055993,-0.6761786464036761,0.348380453951902,-0.9307315349578857,0.330204963684082,-0.1571730971336365,0,0,0,-1,-1,41285.18129825001,unknown,2,2023-02-25T18:26:41.090-08:00,2023-02-23T12:03:25.234-08:00,4999,1.574048,0,0,3946.346,6,4,2023-02-25T18:25:24.830-08:00,699071203.7006645,0,80.91,97.81409,1,0.7
2023-02-25T18:26:45.410-08:00,1677378404.564249,34.25725605472785,-118.5949916424127,298.087,-1,-1,-1,-1,77.79964447021484,40,-9999,41289.51347475001,-0.8195037841796875,0.270599365234375,-0.4018096923828125,41289.48122975,-2.544233496492994,-1.390575953684385,-0.3346519756591579,-1.363744258880615,0.6255496740341187,-0.2387829571962357,0.1746039390563965,-0.1406047642230988,-0.3061611652374268,XArbitraryZVertical,-0.6413249337990772,-0.06364750706757727,-0.6922284238691433,0.3247633744163074,-0.9292274713516235,0.3284404575824738,-0.1693026423454285,0,0,0,-1,-1,41285.18129825001,unknown,2,2023-02-25T18:26:41.090-08:00,2023-02-23T12:03:25.234-08:00,4999,1.574048,0,0,3946.346,6,4,2023-02-25T18:25:24.830-08:00,699071203.7006645,0,80.91,97.81409,1,0.7
2023-02-25T18:26:45.444-08:00,1677378404.564249,34.25725605472785,-118.5949916424127,298.087,-1,-1,-1,-1,77.79964447021484,40,-9999,41289.54699075,-0.8197479248046875,0.4047698974609375,-0.3268890380859375,41289.54079575,-2.653396913026514,-1.394654392131178,-0.3276283993808846,-1.766036629676819,0.5542243719100952,-0.6907632350921631,0.1005696058273315,0.04334431886672974,-0.1796389222145081,XArbitraryZVertical,-0.6450053869526644,-0.03181598623359438,-0.7085685386264936,0.2844054528574872,-0.932158350944519,0.3217984735965729,-0.1659115850925446,0,0,0,-1,-1,41285.18129825001,unknown,2,2023-02-25T18:26:41.090-08:00,2023-02-23T12:03:25.234-08:00,4999,1.574048,0,0,3946.346,6,4,2023-02-25T18:25:24.830-08:00,699071203.7006645,0,80.91,97.81409,1,0.7
2023-02-25T18:26:45.479-08:00,1677378404.564249,34.25725605472785,-118.5949916424127,298.087,-1,-1,-1,-1,77.79964447021484,40,-9999,41289.58050675,-0.8306732177734375,0.44342041015625,-0.2915191650390625,41289.54079575,-2.653396913026514,-1.394654392131178,-0.3276283993808846,-1.766036629676819,0.5542243719100952,-0.6907632350921631,0.1005696058273315,0.04334431886672974,-0.1796389222145081,XArbitraryZVertical,-0.6450053869526644,-0.03181598623359438,-0.7085685386264936,0.2844054528574872,-0.932158350944519,0.3217984735965729,-0.1659115850925446,0,0,0,-1,-1,41285.18129825001,unknown,2,2023-02-25T18:26:41.090-08:00,2023-02-23T12:03:25.234-08:00,4999,1.574048,0,0,3946.346,6,4,2023-02-25T18:25:24.830-08:00,699071203.7006645,0,80.91,97.81409,1,0.7
2023-02-25T18:26:45.513-08:00,1677378404.564249,34.25725605472785,-118.5949916424127,298.087,-1,-1,-1,-1,77.79964447021484,40,-9999,41289.61402275,-0.8571624755859375,0.41375732421875,-0.2489471435546875,41289.60036275,-2.747135737518084,-1.396855062216243,-0.2940007622975419,-1.083683848381042,0.4721542596817017,-0.8341286182403564,0.0835648775100708,0.137599766254425,-0.09591130912303925,XArbitraryZVertical,-0.6457289492507114,-0.01464001061178993,-0.7244517331242828,0.240809704166267,-0.9426498413085938,0.2897836267948151,-0.1656395941972733,0,0,0,-1,-1,41285.18129825001,unknown,2,2023-02-25T18:26:41.090-08:00,2023-02-23T12:03:25.234-08:00,4999,1.574048,0,0,3946.346,6,4,2023-02-25T18:25:24.830-08:00,699071203.7006645,0,80.91,97.81409,1,0.7
2023-02-25T18:26:45.543-08:00,1677378404.564249,34.25725605472785,-118.5949916424127,298.087,-1,-1,-1,-1,77.79964447021484,40,-9999,41289.64749875,-0.79644775390625,0.4211273193359375,-0.2009735107421875,41289.60036275,-2.747135737518084,-1.396855062216243,-0.2940007622975419,-1.083683848381042,0.4721542596817017,-0.8341286182403564,0.0835648775100708,0.137599766254425,-0.09591130912303925,XArbitraryZVertical,-0.6457289492507114,-0.01464001061178993,-0.7244517331242828,0.240809704166267,-0.9426498413085938,0.2897836267948151,-0.1656395941972733,0,0,0,-1,-1,41285.18129825001,unknown,2,2023-02-25T18:26:41.090-08:00,2023-02-23T12:03:25.234-08:00,4999,1.574048,0,0,3946.346,6,4,2023-02-25T18:25:24.830-08:00,699071203.7006645,0,80.91,97.81409,1,0.7
2023-02-25T18:26:45.578-08:00,1677378404.564249,34.25725605472785,-118.5949916424127,298.087,-1,-1,-1,-1,77.79964447021484,40,-9999,41289.68101475,-0.7831573486328125,0.39453125,-0.2015838623046875,41289.65992875,-2.817065837869408,-1.385746568279229,-0.2570476642470366,-0.9090208411216736,0.3820459246635437,-0.7649800777435303,0.1670482158660889,0.1341861486434937,-0.02715837955474854,XArbitraryZVertical,-0.6410925700498726,-0.005019921275005279,-0.7398182782371739,0.2040688031752365,-0.9506328105926514,0.2542263269424438,-0.1779502332210541,0,0,0,-1,-1,41285.18129825001,unknown,2,2023-02-25T18:26:41.090-08:00,2023-02-23T12:03:25.234-08:00,4999,1.574048,0,0,3946.346,6,4,2023-02-25T18:25:24.830-08:00,699071203.7006645,0,80.91,97.81409,1,0.7
2023-02-25T18:26:45.613-08:00,1677378404.564249,34.25725605472785,-118.5949916424127,298.087,-1,-1,-1,-1,77.79964447021484,40,-9999,41289.71453075,-0.7896270751953125,0.4397735595703125,-0.1912384033203125,41289.65992875,-2.817065837869408,-1.385746568279229,-0.2570476642470366,-0.9090208411216736,0.3820459246635437,-0.7649800777435303,0.1670482158660889,0.1341861486434937,-0.02715837955474854,XArbitraryZVertical,-0.6410925700498726,-0.005019921275005279,-0.7398182782371739,0.2040688031752365,-0.9506328105926514,0.2542263269424438,-0.1779502332210541,0,0,0,-1,-1,41285.18129825001,unknown,2,2023-02-25T18:26:41.090-08:00,2023-02-23T12:03:25.234-08:00,4999,1.574048,0,0,3946.346,6,4,2023-02-25T18:25:24.830-08:00,699071203.7006645,0,80.91,97.81409,1,0.7
2023-02-25T18:26:45.647-08:00,1677378404.564249,34.25725605472785,-118.5949916424127,298.087,-1,-1,-1,-1,77.79964447021484,40,-9999,41289.74804775,-0.8735809326171875,0.449066162109375,-0.2030792236328125,41289.71949475,-2.876066659747399,-1.383289073344657,-0.2283009682544349,-0.8675580620765686,0.1803857982158661,-0.5480260252952576,0.1676724553108215,0.2107498049736023,-0.00708615779876709,XArbitraryZVertical,-0.6396903824047508,0.00307682213128424,-0.7488352860291533,0.1732985560679688,-0.9569790363311768,0.2263229042291641,-0.1815734952688217,0,0,0,-1,-1,41285.18129825001,unknown,2,2023-02-25T18:26:41.090-08:00,2023-02-23T12:03:25.234-08:00,4999,1.574048,0,0,3946.346,6,4,2023-02-25T18:25:24.830-08:00,699071203.7006645,0,80.91,97.81409,1,0.7
2023-02-25T18:26:45.678-08:00,1677378404.564249,34.25725605472785,-118.5949916424127,298.087,-1,-1,-1,-1,77.79964447021484,40,-9999,41289.78152375,-1.046234130859375,0.5322265625,-0.2598114013671875,41289.71949475,-2.876066659747399,-1.383289073344657,-0.2283009682544349,-0.8675580620765686,0.1803857982158661,-0.5480260252952576,0.1676724553108215,0.2107498049736023,-0.00708615779876709,XArbitraryZVertical,-0.6396903824047508,0.00307682213128424,-0.7488352860291533,0.1732985560679688,-0.9569790363311768,0.2263229042291641,-0.1815734952688217,0,0,0,-1,-1,41285.18129825001,unknown,2,2023-02-25T18:26:41.090-08:00,2023-02-23T12:03:25.234-08:00,4999,1.574048,0,0,3946.346,6,4,2023-02-25T18:25:24.830-08:00,699071203.7006645,0,80.91,97.81409,1,0.7
2023-02-25T18:26:45.712-08:00,1677378404.564249,34.25725605472785,-118.5949916424127,298.087,-1,-1,-1,-1,77.79964447021484,40,-9999,41289.81504025,-1.195098876953125,0.601287841796875,-0.2741241455078125,41289.77906175,-2.925217292180508,-1.392493589020264,-0.2083839436521028,-0.4024573862552643,-0.1068571656942368,-0.4457142949104309,-0.06625813245773315,0.3142237663269043,-0.08276401460170746,XArbitraryZVertical,-0.6427514229597517,0.01045614395546063,-0.7514299657513409,0.1487083098051154,-0.9628555178642273,0.2068790793418884,-0.173522561788559,0,0,0,-1,-1,41285.18129825001,unknown,2,2023-02-25T18:26:41.090-08:00,2023-02-23T12:03:25.234-08:00,4999,1.574048,0,0,3946.346,6,4,2023-02-25T18:25:24.830-08:00,699071203.7006645,0,80.91,97.81409,1,0.7
2023-02-25T18:26:45.747-08:00,1677378404.564249,34.25725605472785,-118.5949916424127,298.087,-1,-1,-1,-1,77.79964447021484,40,-9999,41289.84855625,-1.286773681640625,0.5912628173828125,-0.2406005859375,41289.83862825,-2.930253117348369,-1.400365620283152,-0.1890017529106519,0.2155528664588928,-0.05459635704755783,-0.148754671216011,-0.3172857165336609,0.4132567346096039,-0.08812844753265381,XArbitraryZVertical,-0.6455152578837382,0.004097894053949558,-0.7506528394164309,0.1407606747767058,-0.9679620862007141,0.1878785192966461,-0.1665865182876587,0,0,0,-1,-1,41285.18129825001,unknown,2,2023-02-25T18:26:41.090-08:00,2023-02-23T12:03:25.234-08:00,4999,1.574048,0,0,3946.346,6,4,2023-02-25T18:25:24.830-08:00,699071203.7006645,0,80.91,97.81409,1,0.7
2023-02-25T18:26:45.781-08:00,1677378404.564249,34.25725605472785,-118.5949916424127,298.087,-1,-1,-1,-1,77.79964447021484,40,-9999,41289.88207225,-1.092575073242188,0.5357513427734375,-0.25299072265625,41289.83862825,-2.930253117348369,-1.400365620283152,-0.1890017529106519,0.2155528664588928,-0.05459635704755783,-0.148754671216011,-0.3172857165336609,0.4132567346096039,-0.08812844753265381,XArbitraryZVertical,-0.6455152578837382,0.004097894053949558,-0.7506528394164309,0.1407606747767058,-0.9679620862007141,0.1878785192966461,-0.1665865182876587,0,0,0,-1,-1,41285.18129825001,unknown,2,2023-02-25T18:26:41.090-08:00,2023-02-23T12:03:25.234-08:00,4999,1.574048,0,0,3946.346,6,4,2023-02-25T18:25:24.830-08:00,699071203.7006645,0,80.91,97.81409,1,0.7
2023-02-25T18:26:45.811-08:00,1677378404.564249,34.25725605472785,-118.5949916424127,298.087,-1,-1,-1,-1,77.79964447021484,40,-9999,41289.91554825,-0.83465576171875,0.498046875,-0.362457275390625,41289.89819425,-2.918957617435459,-1.38834346434394,-0.2001374208723373,0.06408252567052841,0.2903548777103424,0.6684283018112183,0.0003627538681030273,0.3153866529464722,-0.1120811700820923,XArbitraryZVertical,-0.6411383827149211,0.005594900743749576,-0.7529057221375861,0.1484696206668671,-0.963772177696228,0.1988040059804916,-0.177820548415184,0,0,0,-1,-1,41285.18129825001,unknown,2,2023-02-25T18:26:41.090-08:00,2023-02-23T12:03:25.234-08:00,4999,1.574048,0,0,3946.346,6,4,2023-02-25T18:25:24.830-08:00,699071203.7006645,0,80.91,97.81409,1,0.7
2023-02-25T18:26:45.847-08:00,1677378404.564249,34.25725605472785,-118.5949916424127,298.087,-1,-1,-1,-1,77.79964447021484,40,-9999,41289.94906425,-0.820159912109375,0.5145721435546875,-0.3795166015625,41289.89819425,-2.918957617435459,-1.38834346434394,-0.2001374208723373,0.06408252567052841,0.2903548777103424,0.6684283018112183,0.0003627538681030273,0.3153866529464722,-0.1120811700820923,XArbitraryZVertical,-0.6411383827149211,0.005594900743749576,-0.7529057221375861,0.1484696206668671,-0.963772177696228,0.1988040059804916,-0.177820548415184,0,0,0,-1,-1,41285.18129825001,unknown,2,2023-02-25T18:26:41.090-08:00,2023-02-23T12:03:25.234-08:00,4999,1.574048,0,0,3946.346,6,4,2023-02-25T18:25:24.830-08:00,699071203.7006645,0,80.91,97.81409,1,0.7
2023-02-25T18:26:45.881-08:00,1677378404.564249,34.25725605472785,-118.5949916424127,298.087,-1,-1,-1,-1,77.79964447021484,40,-9999,41289.98258025001,-1.019424438476562,0.555999755859375,-0.3165130615234375,41289.95776125,-2.891688016937089,-1.374005871712053,-0.2706019283272129,0.4183172881603241,0.009707795456051826,1.789020776748657,0.0955396294593811,0.2656016945838928,-0.1802141070365906,XArbitraryZVertical,-0.6365243766754449,0.02515684829579024,-0.7494497929430958,0.1803575230244603,-0.9450116753578186,0.2673115134239197,-0.1884077042341232,0,0,0,-1,-1,41285.18129825001,unknown,2,2023-02-25T18:26:41.090-08:00,2023-02-23T12:03:25.234-08:00,4999,1.574048,0,0,3946.346,6,4,2023-02-25T18:25:24.830-08:00,699071203.7006645,0,80.91,97.81409,1,0.7
2023-02-25T18:26:45.915-08:00,1677378404.564249,34.25725605472785,-118.5949916424127,298.087,-1,-1,-1,-1,77.79964447021484,40,-9999,41290.01609625,-1.203948974609375,0.5535125732421875,-0.288177490234375,41289.95776125,-2.891688016937089,-1.374005871712053,-0.2706019283272129,0.4183172881603241,0.009707795456051826,1.789020776748657,0.0955396294593811,0.2656016945838928,-0.1802141070365906,XArbitraryZVertical,-0.6365243766754449,0.02515684829579024,-0.7494497929430958,0.1803575230244603,-0.9450116753578186,0.2673115134239197,-0.1884077042341232,0,0,0,-1,-1,41285.18129825001,unknown,2,2023-02-25T18:26:41.090-08:00,2023-02-23T12:03:25.234-08:00,4999,1.574048,0,0,3946.346,6,4,2023-02-25T18:25:24.830-08:00,699071203.7006645,0,80.91,97.81409,1,0.7
2023-02-25T18:26:45.946-08:00,1677378404.564249,34.25725605472785,-118.5949916424127,298.087,-1,-1,-1,-1,77.79964447021484,40,-9999,41290.04957225001,-1.10833740234375,0.5661163330078125,-0.26177978515625,41290.01732725,-2.824086401897504,-1.345292895272886,-0.3785716009981758,0.8363779783248901,0.3708454668521881,1.968979835510254,-0.2982811331748962,0.1839189827442169,-0.08041253685951233,XArbitraryZVertical,-0.627500741816954,0.04858331678967159,-0.7400119187015821,0.2372022063399755,-0.9056679010391235,0.3695935904979706,-0.2077649533748627,0,0,0,-1,-1,41285.18129825001,unknown,2,2023-02-25T18:26:41.090-08:00,2023-02-23T12:03:25.234-08:00,4999,1.574048,0,0,3946.346,6,4,2023-02-25T18:25:24.830-08:00,699071203.7006645,0,80.91,97.81409,1,0.7
2023-02-25T18:26:45.980-08:00,1677378404.564249,34.25725605472785,-118.5949916424127,298.087,-1,-1,-1,-1,77.79964447021484,40,-9999,41290.08308825,-0.9873199462890625,0.4654998779296875,-0.2224578857421875,41290.07689325,-2.755455118299189,-1.274100810866584,-0.4788430573750722,0.2184397280216217,0.9238724708557129,1.86726438999176,-0.1685376167297363,0.0294816792011261,0.02527225017547607,XArbitraryZVertical,-0.6036989154702244,0.07620975856726792,-0.739349633784506,0.2882739569281745,-0.8487505912780762,0.4607526659965515,-0.2594793736934662,0,0,0,-1,-1,41285.18129825001,unknown,2,2023-02-25T18:26:41.090-08:00,2023-02-23T12:03:25.234-08:00,4999,1.574048,0,0,3946.346,6,4,2023-02-25T18:25:24.830-08:00,699071203.7006645,0,80.91,97.81409,1,0.7
2023-02-25T18:26:46.015-08:00,1677378404.564249,34.25725605472785,-118.5949916424127,298.087,-1,-1,-1,-1,77.79964447021484,40,-9999,41290.11660425,-0.84210205078125,0.4433135986328125,-0.2234954833984375,41290.07689325,-2.755455118299189,-1.274100810866584,-0.4788430573750722,0.2184397280216217,0.9238724708557129,1.86726438999176,-0.1685376167297363,0.0294816792011261,0.02527225017547607,XArbitraryZVertical,-0.6036989154702244,0.07620975856726792,-0.739349633784506,0.2882739569281745,-0.8487505912780762,0.4607526659965515,-0.2594793736934662,0,0,0,-1,-1,41285.18129825001,unknown,2,2023-02-25T18:26:41.090-08:00,2023-02-23T12:03:25.234-08:00,4999,1.574048,0,0,3946.346,6,4,2023-02-25T18:25:24.830-08:00,699071203.7006645,0,80.91,97.81409,1,0.7
2023-02-25T18:26:46.049-08:00,1677378404.564249,34.25725605472785,-118.5949916424127,298.087,-1,-1,-1,-1,77.79964447021484,40,-9999,41290.15012025,-0.783203125,0.4511260986328125,-0.214447021484375,41290.13646025,-2.722982893209872,-1.200113382498566,-0.591404978732063,-0.4385742247104645,0.8907792568206787,1.975136518478394,-0.03869551420211792,-0.09515613317489624,0.07066977024078369,XArbitraryZVertical,-0.5783630869937439,0.1230157799187357,-0.7380617671610148,0.3250046968894059,-0.7737739682197571,0.5575278997421265,-0.3007265031337738,0,0,0,-1,-1,41285.18129825001,unknown,2,2023-02-25T18:26:41.090-08:00,2023-02-23T12:03:25.234-08:00,4999,1.574048,0,0,3946.346,6,4,2023-02-25T18:25:24.830-08:00,699071203.7006645,0,80.91,97.81409,1,0.7
2023-02-25T18:26:46.079-08:00,1677378404.564249,34.25725605472785,-118.5949916424127,298.087,-1,-1,-1,-1,77.79964447021484,40,-9999,41290.18359625,-0.708770751953125,0.430999755859375,-0.164093017578125,41290.13646025,-2.722982893209872,-1.200113382498566,-0.591404978732063,-0.4385742247104645,0.8907792568206787,1.975136518478394,-0.03869551420211792,-0.09515613317489624,0.07066977024078369,XArbitraryZVertical,-0.5783630869937439,0.1230157799187357,-0.7380617671610148,0.3250046968894059,-0.7737739682197571,0.5575278997421265,-0.3007265031337738,0,0,0,-1,-1,41285.18129825001,unknown,2,2023-02-25T18:26:41.090-08:00,2023-02-23T12:03:25.234-08:00,4999,1.574048,0,0,3946.346,6,4,2023-02-25T18:25:24.830-08:00,699071203.7006645,0,80.91,97.81409,1,0.7
2023-02-25T18:26:46.115-08:00,1677378404.564249,34.25725605472785,-118.5949916424127,298.087,-1,-1,-1,-1,77.79964447021484,40,-9999,41290.21711325,-0.6278533935546875,0.414794921875,-0.16748046875,41290.19602625,-2.699354914811078,-1.136571546775145,-0.7028227519313244,-0.2958754301071167,0.7560669779777527,1.618538498878479,0.01279687881469727,-0.2178767323493958,0.1613557040691376,XArbitraryZVertical,-0.5566250274838213,0.1722335342179873,-0.7314207524491165,0.3542993000036254,-0.692209780216217,0.6463741064071655,-0.3210083842277527,0,0,0,-1,-1,41285.18129825001,unknown,2,2023-02-25T18:26:41.090-08:00,2023-02-23T12:03:25.234-08:00,4999,1.574048,0,0,3946.346,6,4,2023-02-25T18:25:24.830-08:00,699071203.7006645,0,80.91,97.81409,1,0.7
2023-02-25T18:26:46.149-08:00,1677378404.564249,34.25725605472785,-118.5949916424127,298.087,-1,-1,-1,-1,77.79964447021484,40,-9999,41290.25062925,-0.589385986328125,0.36968994140625,-0.134307861328125,41290.19602625,-2.699354914811078,-1.136571546775145,-0.7028227519313244,-0.2958754301071167,0.7560669779777527,1.618538498878479,0.01279687881469727,-0.2178767323493958,0.1613557040691376,XArbitraryZVertical,-0.5566250274838213,0.1722335342179873,-0.7314207524491165,0.3542993000036254,-0.692209780216217,0.6463741064071655,-0.3210083842277527,0,0,0,-1,-1,41285.18129825001,unknown,2,2023-02-25T18:26:41.090-08:00,2023-02-23T12:03:25.234-08:00,4999,1.574048,0,0,3946.346,6,4,2023-02-25T18:25:24.830-08:00,699071203.7006645,0,80.91,97.81409,1,0.7
2023-02-25T18:26:46.183-08:00,1677378404.564249,34.25725605472785,-118.5949916424127,298.087,-1,-1,-1,-1,77.79964447021484,40,-9999,41290.28414525,-0.6121826171875,0.3374176025390625,-0.1137847900390625,41290.25559225,-2.652765914780822,-1.067558754820711,-0.768369779402897,0.2344973385334015,0.4637426435947418,0.8217507600784302,0.03596854209899902,-0.3316980004310608,0.2155439555644989,XArbitraryZVertical,-0.5357634157729124,0.1989291757696952,-0.7282679277668126,0.3781673703395696,-0.6299015879631042,0.6949639320373535,-0.3467694818973541,0,0,0,-1,-1,41285.18129825001,unknown,2,2023-02-25T18:26:41.090-08:00,2023-02-23T12:03:25.234-08:00,4999,1.574048,0,0,3946.346,6,4,2023-02-25T18:25:24.830-08:00,699071203.7006645,0,80.91,97.81409,1,0.7
2023-02-25T18:26:46.214-08:00,1677378404.564249,34.25725605472785,-118.5949916424127,298.087,-1,-1,-1,-1,77.79964447021484,40,-9999,41290.31762125,-0.633331298828125,0.3110809326171875,-0.107757568359375,41290.25559225,-2.652765914780822,-1.067558754820711,-0.768369779402897,0.2344973385334015,0.4637426435947418,0.8217507600784302,0.03596854209899902,-0.3316980004310608,0.2155439555644989,XArbitraryZVertical,-0.5357634157729124,0.1989291757696952,-0.7282679277668126,0.3781673703395696,-0.6299015879631042,0.6949639320373535,-0.3467694818973541,0,0,0,-1,-1,41285.18129825001,unknown,2,2023-02-25T18:26:41.090-08:00,2023-02-23T12:03:25.234-08:00,4999,1.574048,0,0,3946.346,6,4,2023-02-25T18:25:24.830-08:00,699071203.7006645,0,80.91,97.81409,1,0.7
2023-02-25T18:26:46.248-08:00,1677378404.564249,34.25725605472785,-118.5949916424127,298.087,-1,-1,-1,-1,77.79964447021484,40,-9999,41290.35113725,-0.733551025390625,0.308197021484375,-0.100433349609375,41290.31515925,-2.619917801565409,-1.021983255565979,-0.7773121383589949,0.2545627057552338,0.2415077388286591,-0.1838635206222534,-0.02214187383651733,-0.3862873315811157,0.2636353373527527,XArbitraryZVertical,-0.5225033169462456,0.2026449482583375,-0.7321097044250156,0.3872218264921832,-0.6081224083900452,0.7013660669326782,-0.3718506097793579,0,0,0,-1,-1,41290.26428925,unknown,2,2023-02-25T18:26:46.173-08:00,2023-02-23T12:03:25.234-08:00,4999,1.574048,0,0,3946.346,6,4,2023-02-25T18:25:24.830-08:00,699071206.2488692,0,80.89,97.71666,1,0.7
2023-02-25T18:26:46.283-08:00,1677378404.564249,34.25725605472785,-118.5949916424127,298.087,-1,-1,-1,-1,77.79964447021484,40,-9999,41290.38465325,-0.8469390869140625,0.3498687744140625,-0.1231231689453125,41290.37472525,-2.634686950093811,-1.030835817124728,-0.7347432841714417,0.2512025535106659,-0.1899094432592392,-1.24959659576416,-0.1837072372436523,-0.3383960127830505,0.2661393582820892,XArbitraryZVertical,-0.523673096650369,0.1871733712100705,-0.7416972316728049,0.3749903840965245,-0.6364373564720154,0.6703966856002808,-0.3814652264118195,0,0,0,-1,-1,41290.26428925,unknown,2,2023-02-25T18:26:46.173-08:00,2023-02-23T12:03:25.234-08:00,4999,1.574048,0,0,3946.346,6,4,2023-02-25T18:25:24.830-08:00,699071206.2488692,0,80.89,97.71666,1,0.7
2023-02-25T18:26:46.317-08:00,1677378404.564249,34.25725605472785,-118.5949916424127,298.087,-1,-1,-1,-1,77.79964447021484,40,-9999,41290.41816925001,-0.980316162109375,0.4247589111328125,-0.18280029296875,41290.37472525,-2.634686950093811,-1.030835817124728,-0.7347432841714417,0.2512025535106659,-0.1899094432592392,-1.24959659576416,-0.1837072372436523,-0.3383960127830505,0.2661393582820892,XArbitraryZVertical,-0.523673096650369,0.1871733712100705,-0.7416972316728049,0.3749903840965245,-0.6364373564720154,0.6703966856002808,-0.3814652264118195,0,0,0,-1,-1,41290.26428925,unknown,2,2023-02-25T18:26:46.173-08:00,2023-02-23T12:03:25.234-08:00,4999,1.574048,0,0,3946.346,6,4,2023-02-25T18:25:24.830-08:00,699071206.2488692,0,80.89,97.71666,1,0.7
2023-02-25T18:26:46.347-08:00,1677378404.564249,34.25725605472785,-118.5949916424127,298.087,-1,-1,-1,-1,77.79964447021484,40,-9999,41290.45164525,-1.276107788085938,0.4644012451171875,-0.2377166748046875,41290.43429125,-2.659321527116427,-1.07176228953422,-0.6327059709244531,1.094172596931458,-0.7735278606414795,-1.982426047325134,-0.3958300352096558,-0.1361594796180725,0.175261378288269,XArbitraryZVertical,-0.5350997680719931,0.1438697100358612,-0.7555754242428206,0.3493930339691872,-0.7080823183059692,0.5913290977478027,-0.3859394788742065,0,0,0,-1,-1,41290.26428925,unknown,2,2023-02-25T18:26:46.173-08:00,2023-02-23T12:03:25.234-08:00,4999,1.574048,0,0,3946.346,6,4,2023-02-25T18:25:24.830-08:00,699071206.2488692,0,80.89,97.71666,1,0.7
2023-02-25T18:26:46.382-08:00,1677378404.564249,34.25725605472785,-118.5949916424127,298.087,-1,-1,-1,-1,77.79964447021484,40,-9999,41290.48516125001,-1.439910888671875,0.4239959716796875,-0.2581634521484375,41290.43429125,-2.659321527116427,-1.07176228953422,-0.6327059709244531,1.094172596931458,-0.7735278606414795,-1.982426047325134,-0.3958300352096558,-0.1361594796180725,0.175261378288269,XArbitraryZVertical,-0.5350997680719931,0.1438697100358612,-0.7555754242428206,0.3493930339691872,-0.7080823183059692,0.5913290977478027,-0.3859394788742065,0,0,0,-1,-1,41290.26428925,unknown,2,2023-02-25T18:26:46.173-08:00,2023-02-23T12:03:25.234-08:00,4999,1.574048,0,0,3946.346,6,4,2023-02-25T18:25:24.830-08:00,699071206.2488692,0,80.89,97.71666,1,0.7
2023-02-25T18:26:46.417-08:00,1677378404.564249,34.25725605472785,-118.5949916424127,298.087,-1,-1,-1,-1,77.79964447021484,40,-9999,41290.51867725,-1.256622314453125,0.3506011962890625,-0.2920379638671875,41290.49385825,-2.631668632698638,-1.118823655934398,-0.4760180653968265,1.690697312355042,-1.02704381942749,-2.241938352584839,-0.6372056603431702,-0.05570146441459656,0.1297794878482819,XArbitraryZVertical,-0.5494540765979121,0.06329870329393675,-0.7654906194542005,0.3288122305064268,-0.7995771169662476,0.4582435786724091,-0.3881869912147522,0,0,0,-1,-1,41290.26428925,unknown,2,2023-02-25T18:26:46.173-08:00,2023-02-23T12:03:25.234-08:00,4999,1.574048,0,0,3946.346,6,4,2023-02-25T18:25:24.830-08:00,699071206.2488692,0,80.89,97.71666,1,0.7
2023-02-25T18:26:46.451-08:00,1677378404.564249,34.25725605472785,-118.5949916424127,298.087,-1,-1,-1,-1,77.79964447021484,40,-9999,41290.55219325001,-0.8632659912109375,0.33074951171875,-0.374725341796875,41290.49385825,-2.631668632698638,-1.118823655934398,-0.4760180653968265,1.690697312355042,-1.02704381942749,-2.241938352584839,-0.6372056603431702,-0.05570146441459656,0.1297794878482819,XArbitraryZVertical,-0.5494540765979121,0.06329870329393675,-0.7654906194542005,0.3288122305064268,-0.7995771169662476,0.4582435786724091,-0.3881869912147522,0,0,0,-1,-1,41290.26428925,unknown,2,2023-02-25T18:26:46.173-08:00,2023-02-23T12:03:25.234-08:00,4999,1.574048,0,0,3946.346,6,4,2023-02-25T18:25:24.830-08:00,699071206.2488692,0,80.89,97.71666,1,0.7
2023-02-25T18:26:46.482-08:00,1677378404.564249,34.25725605472785,-118.5949916424127,298.087,-1,-1,-1,-1,77.79964447021484,40,-9999,41290.58566925,-0.596343994140625,0.2629241943359375,-0.34844970703125,41290.55342425,-2.625166833325349,-1.161667467965369,-0.3410812900656591,0.1996587216854095,-0.6866520643234253,-1.617344737052917,0.001349687576293945,-0.003756791353225708,0.0001685023307800293,XArbitraryZVertical,-0.5590637530277046,-0.000905899367588503,-0.7727842812440266,0.3004187053855276,-0.8646156787872314,0.3345063030719757,-0.3748937845230103,0,0,0,-1,-1,41290.26428925,unknown,2,2023-02-25T18:26:46.173-08:00,2023-02-23T12:03:25.234-08:00,4999,1.574048,0,0,3946.346,6,4,2023-02-25T18:25:24.830-08:00,699071206.2488692,0,80.89,97.71666,1,0.7
2023-02-25T18:26:46.516-08:00,1677378404.564249,34.25725605472785,-118.5949916424127,298.087,-1,-1,-1,-1,77.79964447021484,40,-9999,41290.61918525001,-0.7378082275390625,0.27215576171875,-0.2793426513671875,41290.61299025,-2.672584427737081,-1.22620519578309,-0.2877519944342756,-0.5675637722015381,-1.083629012107849,-0.725230872631073,0.2314333915710449,-0.01765358448028564,0.02881753444671631,XArbitraryZVertical,-0.5811240602885769,-0.01826444948650258,-0.768091985007509,0.2683204350440386,-0.9025149345397949,0.2837973535060883,-0.3239224851131439,0,0,0,-1,-1,41290.26428925,unknown,2,2023-02-25T18:26:46.173-08:00,2023-02-23T12:03:25.234-08:00,4999,1.574048,0,0,3946.346,6,4,2023-02-25T18:25:24.830-08:00,699071206.2488692,0,80.89,97.71666,1,0.7
2023-02-25T18:26:46.551-08:00,1677378404.564249,34.25725605472785,-118.5949916424127,298.087,-1,-1,-1,-1,77.79964447021484,40,-9999,41290.65270125,-0.9632720947265625,0.30987548828125,-0.2263336181640625,41290.61299025,-2.672584427737081,-1.22620519578309,-0.2877519944342756,-0.5675637722015381,-1.083629012107849,-0.725230872631073,0.2314333915710449,-0.01765358448028564,0.02881753444671631,XArbitraryZVertical,-0.5811240602885769,-0.01826444948650258,-0.768091985007509,0.2683204350440386,-0.9025149345397949,0.2837973535060883,-0.3239224851131439,0,0,0,-1,-1,41290.26428925,unknown,2,2023-02-25T18:26:46.173-08:00,2023-02-23T12:03:25.234-08:00,4999,1.574048,0,0,3946.346,6,4,2023-02-25T18:25:24.830-08:00,699071206.2488692,0,80.89,97.71666,1,0.7
2023-02-25T18:26:46.585-08:00,1677378404.564249,34.25725605472785,-118.5949916424127,298.087,-1,-1,-1,-1,77.79964447021484,40,-9999,41290.68621725,-0.98822021484375,0.25775146484375,-0.2255401611328125,41290.67255725,-2.714929024170918,-1.288015479455991,-0.2687698653790354,-0.6652271747589111,-0.4216614663600922,-0.4907671511173248,-0.0774579644203186,0.01776421070098877,0.04694846272468567,XArbitraryZVertical,-0.6041882559559907,-0.02125504483202878,-0.7574896860214826,0.2464021923346199,-0.9258072972297668,0.265545666217804,-0.2690095603466034,0,0,0,-1,-1,41290.26428925,unknown,2,2023-02-25T18:26:46.173-08:00,2023-02-23T12:03:25.234-08:00,4999,1.574048,0,0,3946.346,6,4,2023-02-25T18:25:24.830-08:00,699071206.2488692,0,80.89,97.71666,1,0.7
2023-02-25T18:26:46.615-08:00,1677378404.564249,34.25725605472785,-118.5949916424127,298.087,-1,-1,-1,-1,77.79964447021484,40,-9999,41290.71969325,-0.891021728515625,0.2669219970703125,-0.2369842529296875,41290.67255725,-2.714929024170918,-1.288015479455991,-0.2687698653790354,-0.6652271747589111,-0.4216614663600922,-0.4907671511173248,-0.0774579644203186,0.01776421070098877,0.04694846272468567,XArbitraryZVertical,-0.6041882559559907,-0.02125504483202878,-0.7574896860214826,0.2464021923346199,-0.9258072972297668,0.265545666217804,-0.2690095603466034,0,0,0,-1,-1,41290.26428925,unknown,2,2023-02-25T18:26:46.173-08:00,2023-02-23T12:03:25.234-08:00,4999,1.574048,0,0,3946.346,6,4,2023-02-25T18:25:24.830-08:00,699071206.2488692,0,80.89,97.71666,1,0.7
2023-02-25T18:26:46.651-08:00,1677378404.564249,34.25725605472785,-118.5949916424127,298.087,-1,-1,-1,-1,77.79964447021484,40,-9999,41290.75321025,-0.75921630859375,0.3316497802734375,-0.2448577880859375,41290.73212325,-2.808589401610543,-1.316865844981477,-0.2461545896611584,-2.169344425201416,0.1931071877479553,-1.03656017780304,0.09328150749206543,0.04701894521713257,0.004288643598556519,XArbitraryZVertical,-0.6149448443354089,-0.004881748924028095,-0.7616637126205144,0.2041750392121564,-0.9387558102607727,0.2436762750148773,-0.2436380088329315,0,0,0,-1,-1,41290.26428925,unknown,2,2023-02-25T18:26:46.173-08:00,2023-02-23T12:03:25.234-08:00,4999,1.574048,0,0,3946.346,6,4,2023-02-25T18:25:24.830-08:00,699071206.2488692,0,80.89,97.71666,1,0.7
2023-02-25T18:26:46.685-08:00,1677378404.564249,34.25725605472785,-118.5949916424127,298.087,-1,-1,-1,-1,77.79964447021484,40,-9999,41290.78672625,-0.722900390625,0.391143798828125,-0.256744384765625,41290.73212325,-2.808589401610543,-1.316865844981477,-0.2461545896611584,-2.169344425201416,0.1931071877479553,-1.03656017780304,0.09328150749206543,0.04701894521713257,0.004288643598556519,XArbitraryZVertical,-0.6149448443354089,-0.004881748924028095,-0.7616637126205144,0.2041750392121564,-0.9387558102607727,0.2436762750148773,-0.2436380088329315,0,0,0,-1,-1,41290.26428925,unknown,2,2023-02-25T18:26:46.173-08:00,2023-02-23T12:03:25.234-08:00,4999,1.574048,0,0,3946.346,6,4,2023-02-25T18:25:24.830-08:00,699071206.2488692,0,80.89,97.71666,1,0.7
2023-02-25T18:26:46.719-08:00,1677378404.564249,34.25725605472785,-118.5949916424127,298.087,-1,-1,-1,-1,77.79964447021484,40,-9999,41290.82024279167,-0.7785491943359375,0.4841156005859375,-0.2643585205078125,41290.79168979167,-2.980774900264227,-1.345195611442406,-0.2178946332565647,-2.687832355499268,0.05894085764884949,-1.12566602230072,0.2247156500816345,0.184643343091011,-0.03951667249202728,XArbitraryZVertical,-0.6241566813439123,0.03503025376229563,-0.769614619420898,0.1299793248394135,-0.9516137838363647,0.2161745131015778,-0.2184026390314102,0,0,0,-1,-1,41290.26428925,unknown,2,2023-02-25T18:26:46.173-08:00,2023-02-23T12:03:25.234-08:00,4999,1.574048,0,0,3946.346,6,4,2023-02-25T18:25:24.830-08:00,699071206.2488692,0,80.89,97.71666,1,0.7
2023-02-25T18:26:46.750-08:00,1677378404.564249,34.25725605472785,-118.5949916424127,298.087,-1,-1,-1,-1,77.79964447021484,40,-9999,41290.85371879167,-0.8202667236328125,0.5558319091796875,-0.2758941650390625,41290.79168979167,-2.980774900264227,-1.345195611442406,-0.2178946332565647,-2.687832355499268,0.05894085764884949,-1.12566602230072,0.2247156500816345,0.184643343091011,-0.03951667249202728,XArbitraryZVertical,-0.6241566813439123,0.03503025376229563,-0.769614619420898,0.1299793248394135,-0.9516137838363647,0.2161745131015778,-0.2184026390314102,0,0,0,-1,-1,41290.26428925,unknown,2,2023-02-25T18:26:46.173-08:00,2023-02-23T12:03:25.234-08:00,4999,1.574048,0,0,3946.346,6,4,2023-02-25T18:25:24.830-08:00,699071206.2488692,0,80.89,97.71666,1,0.7
2023-02-25T18:26:46.784-08:00,1677378404.564249,34.25725605472785,-118.5949916424127,298.087,-1,-1,-1,-1,77.79964447021484,40,-9999,41290.88723479167,-0.8112335205078125,0.551666259765625,-0.3211517333984375,41290.85125679167,-3.114087354543127,-1.376078400067794,-0.1765024243105074,-1.096141815185547,-0.1578284651041031,-1.147155404090881,0.1475461721420288,0.3753158748149872,-0.0814279317855835,XArbitraryZVertical,-0.633428935547357,0.05937951897866306,-0.7686439512770887,0.06654574547083858,-0.9658597111701965,0.1755874156951904,-0.1904837191104889,0,0,0,-1,-1,41290.26428925,unknown,2,2023-02-25T18:26:46.173-08:00,2023-02-23T12:03:25.234-08:00,4999,1.574048,0,0,3946.346,6,4,2023-02-25T18:25:24.830-08:00,699071206.2488692,0,80.89,97.71666,1,0.7
2023-02-25T18:26:46.819-08:00,1677378404.564249,34.25725605472785,-118.5949916424127,298.087,-1,-1,-1,-1,77.79964447021484,40,-9999,41290.92075079167,-0.7779388427734375,0.48773193359375,-0.3249969482421875,41290.91082279167,3.140178226480465,-1.395635711826204,-0.1196486468627211,0.1723795086145401,-0.2808910310268402,-0.7723583579063416,0.1837438344955444,0.3940185308456421,-0.1564931273460388,XArbitraryZVertical,-0.6413651149657598,0.0462664119080603,-0.7649024120583336,0.03787608042032986,-0.9776586890220642,0.1193633750081062,-0.1730204224586487,0,0,0,-1,-1,41290.26428925,unknown,2,2023-02-25T18:26:46.173-08:00,2023-02-23T12:03:25.234-08:00,4999,1.574048,0,0,3946.346,6,4,2023-02-25T18:25:24.830-08:00,699071206.2488692,0,80.89,97.71666,1,0.7
2023-02-25T18:26:46.853-08:00,1677378404.564249,34.25725605472785,-118.5949916424127,298.087,-1,-1,-1,-1,77.79964447021484,40,-9999,41290.95426679167,-0.7117462158203125,0.3951416015625,-0.2817840576171875,41290.91082279167,3.140178226480465,-1.395635711826204,-0.1196486468627211,0.1723795086145401,-0.2808910310268402,-0.7723583579063416,0.1837438344955444,0.3940185308456421,-0.1564931273460388,XArbitraryZVertical,-0.6413651149657598,0.0462664119080603,-0.7649024120583336,0.03787608042032986,-0.9776586890220642,0.1193633750081062,-0.1730204224586487,0,0,0,-1,-1,41290.26428925,unknown,2,2023-02-25T18:26:46.173-08:00,2023-02-23T12:03:25.234-08:00,4999,1.574048,0,0,3946.346,6,4,2023-02-25T18:25:24.830-08:00,699071206.2488692,0,80.89,97.71666,1,0.7
2023-02-25T18:26:46.883-08:00,1677378404.564249,34.25725605472785,-118.5949916424127,298.087,-1,-1,-1,-1,77.79964447021484,40,-9999,41290.98774279167,-0.7659759521484375,0.340301513671875,-0.2399139404296875,41290.97038879167,-3.139790893420262,-1.412495977953225,-0.09352685952529052,-0.03044384345412254,-0.3565269410610199,-0.06616126000881195,0.2566946148872375,0.2641533315181732,-0.1105202287435532,XArbitraryZVertical,-0.6483061160274348,0.03498072429380999,-0.7599427600452963,0.03102228328640588,-0.9831807017326355,0.0933905690908432,-0.156951054930687,0,0,0,-1,-1,41290.26428925,unknown,2,2023-02-25T18:26:46.173-08:00,2023-02-23T12:03:25.234-08:00,4999,1.574048,0,0,3946.346,6,4,2023-02-25T18:25:24.830-08:00,699071206.2488692,0,80.89,97.71666,1,0.7
2023-02-25T18:26:46.919-08:00,1677378404.564249,34.25725605472785,-118.5949916424127,298.087,-1,-1,-1,-1,77.79964447021484,40,-9999,41291.02125879167,-0.802520751953125,0.3896331787109375,-0.2681427001953125,41290.97038879167,-3.139790893420262,-1.412495977953225,-0.09352685952529052,-0.03044384345412254,-0.3565269410610199,-0.06616126000881195,0.2566946148872375,0.2641533315181732,-0.1105202287435532,XArbitraryZVertical,-0.6483061160274348,0.03498072429380999,-0.7599427600452963,0.03102228328640588,-0.9831807017326355,0.0933905690908432,-0.156951054930687,0,0,0,-1,-1,41290.26428925,unknown,2,2023-02-25T18:26:46.173-08:00,2023-02-23T12:03:25.234-08:00,4999,1.574048,0,0,3946.346,6,4,2023-02-25T18:25:24.830-08:00,699071206.2488692,0,80.89,97.71666,1,0.7
2023-02-25T18:26:46.953-08:00,1677378404.564249,34.25725605472785,-118.5949916424127,298.087,-1,-1,-1,-1,77.79964447021484,40,-9999,41291.05477479167,-0.813995361328125,0.4605560302734375,-0.36517333984375,41291.02995579167,3.133032799597666,-1.430472277839259,-0.1040657688681976,-0.2524383962154388,-0.1704499870538712,0.2678589224815369,0.1801570057868958,0.3014869093894958,-0.153190016746521,XArbitraryZVertical,-0.6547341020272573,0.04206649066863366,-0.7540557638598455,0.03088053431238347,-0.9848139882087708,0.1038780361413956,-0.1391073316335678,0,0,0,-1,-1,41290.26428925,unknown,2,2023-02-25T18:26:46.173-08:00,2023-02-23T12:03:25.234-08:00,4999,1.574048,0,0,3946.346,6,4,2023-02-25T18:25:24.830-08:00,699071206.2488692,0,80.89,97.71666,1,0.7
2023-02-25T18:26:46.988-08:00,1677378404.564249,34.25725605472785,-118.5949916424127,298.087,-1,-1,-1,-1,77.79964447021484,40,-9999,41291.08829079167,-0.7613067626953125,0.4922637939453125,-0.3699951171875,41291.02995579167,3.133032799597666,-1.430472277839259,-0.1040657688681976,-0.2524383962154388,-0.1704499870538712,0.2678589224815369,0.1801570057868958,0.3014869093894958,-0.153190016746521,XArbitraryZVertical,-0.6547341020272573,0.04206649066863366,-0.7540557638598455,0.03088053431238347,-0.9848139882087708,0.1038780361413956,-0.1391073316335678,0,0,0,-1,-1,41290.26428925,unknown,2,2023-02-25T18:26:46.173-08:00,2023-02-23T12:03:25.234-08:00,4999,1.574048,0,0,3946.346,6,4,2023-02-25T18:25:24.830-08:00,699071206.2488692,0,80.89,97.71666,1,0.7
2023-02-25T18:26:47.018-08:00,1677378404.564249,34.25725605472785,-118.5949916424127,298.087,-1,-1,-1,-1,77.79964447021484,40,-9999,41291.12176679167,-0.7292938232421875,0.4465789794921875,-0.3140716552734375,41291.08952179167,3.133415412156178,-1.439617087361361,-0.1207892895126377,0.1639250069856644,-0.142700657248497,0.3213250935077667,0.2228780388832092,0.3717679679393768,-0.2401448339223862,XArbitraryZVertical,-0.6578477339328637,0.04807514557908166,-0.7507173979182677,0.03672132963556973,-0.9841846823692322,0.1204957813024521,-0.1298502832651138,0,0,0,-1,-1,41290.26428925,unknown,2,2023-02-25T18:26:46.173-08:00,2023-02-23T12:03:25.234-08:00,4999,1.574048,0,0,3946.346,6,4,2023-02-25T18:25:24.830-08:00,699071206.2488692,0,80.89,97.71666,1,0.7
2023-02-25T18:26:47.052-08:00,1677378404.564249,34.25725605472785,-118.5949916424127,298.087,-1,-1,-1,-1,77.79964447021484,40,-9999,41291.15528279167,-0.7626953125,0.37982177734375,-0.2751617431640625,41291.14908779167,-3.125891694776889,-1.439859725974858,-0.1484317976457284,0.367157906293869,0.02260814979672432,0.6842171549797058,0.2385492324829102,0.2462166398763657,-0.1528552919626236,XArbitraryZVertical,-0.657934357092366,0.05058467182512633,-0.7493754479703081,0.05477258728604217,-0.9805384278297424,0.1478873491287231,-0.1291271448135376,0,0,0,-1,-1,41290.26428925,unknown,2,2023-02-25T18:26:46.173-08:00,2023-02-23T12:03:25.234-08:00,4999,1.574048,0,0,3946.346,6,4,2023-02-25T18:25:24.830-08:00,699071206.2488692,0,80.89,97.71666,1,0.7
2023-02-25T18:26:47.087-08:00,1677378404.564249,34.25725605472785,-118.5949916424127,298.087,-1,-1,-1,-1,77.79964447021484,40,-9999,41291.18879879167,-1.029083251953125,0.3915557861328125,-0.249603271484375,41291.14908779167,-3.125891694776889,-1.439859725974858,-0.1484317976457284,0.367157906293869,0.02260814979672432,0.6842171549797058,0.2385492324829102,0.2462166398763657,-0.1528552919626236,XArbitraryZVertical,-0.657934357092366,0.05058467182512633,-0.7493754479703081,0.05477258728604217,-0.9805384278297424,0.1478873491287231,-0.1291271448135376,0,0,0,-1,-1,41290.26428925,unknown,2,2023-02-25T18:26:46.173-08:00,2023-02-23T12:03:25.234-08:00,4999,1.574048,0,0,3946.346,6,4,2023-02-25T18:25:24.830-08:00,699071206.2488692,0,80.89,97.71666,1,0.7
2023-02-25T18:26:47.121-08:00,1677378404.564249,34.25725605472785,-118.5949916424127,298.087,-1,-1,-1,-1,77.79964447021484,40,-9999,41291.22231479167,-1.942672729492188,0.6509246826171875,-0.4560546875,41291.20865479167,-3.102501049240487,-1.441039655636641,-0.1848159025203054,0.6025905609130859,-0.4816185235977173,0.4513640403747559,-0.4384708404541016,0.2896230816841125,-0.2295611202716827,XArbitraryZVertical,-0.6581901803048438,0.05648910796057266,-0.7469239708420965,0.07549446926188497,-0.9747068285942078,0.1837655752897263,-0.1271893382072449,0,0,0,-1,-1,41290.26428925,unknown,2,2023-02-25T18:26:46.173-08:00,2023-02-23T12:03:25.234-08:00,4999,1.574048,0,0,3946.346,6,4,2023-02-25T18:25:24.830-08:00,699071206.2488692,0,80.89,97.71666,1,0.7
2023-02-25T18:26:47.151-08:00,1677378404.564249,34.25725605472785,-118.5949916424127,298.087,-1,-1,-1,-1,77.79964447021484,40,-9999,41291.25579079167,-1.952194213867188,0.670623779296875,-0.196502685546875,41291.20865479167,-3.102501049240487,-1.441039655636641,-0.1848159025203054,0.6025905609130859,-0.4816185235977173,0.4513640403747559,-0.4384708404541016,0.2896230816841125,-0.2295611202716827,XArbitraryZVertical,-0.6581901803048438,0.05648910796057266,-0.7469239708420965,0.07549446926188497,-0.9747068285942078,0.1837655752897263,-0.1271893382072449,0,0,0,-1,-1,41290.26428925,unknown,2,2023-02-25T18:26:46.173-08:00,2023-02-23T12:03:25.234-08:00,4999,1.574048,0,0,3946.346,6,4,2023-02-25T18:25:24.830-08:00,699071206.2488692,0,80.89,97.71666,1,0.7
2023-02-25T18:26:47.187-08:00,1677378404.564249,34.25725605472785,-118.5949916424127,298.087,-1,-1,-1,-1,77.79964447021484,40,-9999,41291.28930679167,-1.273681640625,0.517059326171875,-0.0277862548828125,41291.26822079167,-3.053591848971248,-1.420121496671285,-0.185777079728911,0.4688207805156708,1.285356521606445,-0.06033039838075638,-0.6219241619110107,0.4093448519706726,0.0510411411523819,XArbitraryZVertical,-0.6515352651336703,0.04172001574559187,-0.7516626309943167,0.09361852740394944,-0.9716578722000122,0.184710294008255,-0.1475224792957306,0,0,0,-1,-1,41290.26428925,unknown,2,2023-02-25T18:26:46.173-08:00,2023-02-23T12:03:25.234-08:00,4999,1.574048,0,0,3946.346,6,4,2023-02-25T18:25:24.830-08:00,699071206.2488692,0,80.89,97.71666,1,0.7
2023-02-25T18:26:47.221-08:00,1677378404.564249,34.25725605472785,-118.5949916424127,298.087,-1,-1,-1,-1,77.79964447021484,40,-9999,41291.32282279167,-1.349655151367188,0.4359893798828125,-0.1932525634765625,41291.26822079167,-3.053591848971248,-1.420121496671285,-0.185777079728911,0.4688207805156708,1.285356521606445,-0.06033039838075638,-0.6219241619110107,0.4093448519706726,0.0510411411523819,XArbitraryZVertical,-0.6515352651336703,0.04172001574559187,-0.7516626309943167,0.09361852740394944,-0.9716578722000122,0.184710294008255,-0.1475224792957306,0,0,0,-1,-1,41290.26428925,unknown,2,2023-02-25T18:26:46.173-08:00,2023-02-23T12:03:25.234-08:00,4999,1.574048,0,0,3946.346,6,4,2023-02-25T18:25:24.830-08:00,699071206.2488692,0,80.89,97.71666,1,0.7
2023-02-25T18:26:47.255-08:00,1677378404.564249,34.25725605472785,-118.5949916424127,298.087,-1,-1,-1,-1,77.79964447021484,40,-9999,41291.35633879167,-1.196792602539062,0.4218292236328125,-0.23687744140625,41291.32778679167,-3.034119793434241,-1.368035055558878,-0.2188058463240803,0.6747433543205261,0.4784491658210754,1.163475751876831,-0.3971877098083496,0.2050397992134094,-0.01379942893981934,XArbitraryZVertical,-0.6317724028447029,0.05076304314677671,-0.7655888249431749,0.1102745692114858,-0.9561600089073181,0.2170640975236893,-0.1965734958648682,0,0,0,-1,-1,41290.26428925,unknown,2,2023-02-25T18:26:46.173-08:00,2023-02-23T12:03:25.234-08:00,4999,1.574048,0,0,3946.346,6,4,2023-02-25T18:25:24.830-08:00,699071206.2488692,0,80.89,97.71666,1,0.7
2023-02-25T18:26:47.286-08:00,1677378404.564249,34.25725605472785,-118.5949916424127,298.087,-1,-1,-1,-1,77.79964447021484,40,-9999,41291.38981579167,-0.9648284912109375,0.4770660400390625,-0.1224212646484375,41291.38735379167,-2.946263045575967,-1.320181955382788,-0.2964162243508605,1.340014100074768,0.3900724351406097,2.024479627609253,-0.05981600284576416,0.1924634575843811,0.103532075881958,XArbitraryZVertical,-0.6149506190638154,0.05695466714465475,-0.7687242721078635,0.166297689739669,-0.9265120625495911,0.2920946180820465,-0.2371838092803955,0,0,0,-1,-1,41290.26428925,unknown,2,2023-02-25T18:26:46.173-08:00,2023-02-23T12:03:25.234-08:00,4999,1.574048,0,0,3946.346,6,4,2023-02-25T18:25:24.830-08:00,699071206.2488692,0,80.89,97.71666,1,0.7
2023-02-25T18:26:47.320-08:00,1677378404.564249,34.25725605472785,-118.5949916424127,298.087,-1,-1,-1,-1,77.79964447021484,40,-9999,41291.42333179167,-0.8172607421875,0.38037109375,-0.06597900390625,41291.38735379167,-2.946263045575967,-1.320181955382788,-0.2964162243508605,1.340014100074768,0.3900724351406097,2.024479627609253,-0.05981600284576416,0.1924634575843811,0.103532075881958,XArbitraryZVertical,-0.6149506190638154,0.05695466714465475,-0.7687242721078635,0.166297689739669,-0.9265120625495911,0.2920946180820465,-0.2371838092803955,0,0,0,-1,-1,41290.26428925,unknown,2,2023-02-25T18:26:46.173-08:00,2023-02-23T12:03:25.234-08:00,4999,1.574048,0,0,3946.346,6,4,2023-02-25T18:25:24.830-08:00,699071206.2488692,0,80.89,97.71666,1,0.7
2023-02-25T18:26:47.355-08:00,1677378404.564249,34.25725605472785,-118.5949916424127,298.087,-1,-1,-1,-1,77.79964447021484,40,-9999,41291.45684779167,-0.804107666015625,0.3223724365234375,-0.044525146484375,41291.44691979167,-2.816851238065825,-1.250699885657249,-0.4067715617529797,1.44868540763855,0.4631200134754181,2.538259744644165,0.06897258758544922,-0.05651980638504028,0.2326017022132874,XArbitraryZVertical,-0.5922479161780818,0.06892710707537814,-0.7644886450682036,0.2450480605764238,-0.8717526793479919,0.3956463932991028,-0.2889829277992249,0,0,0,-1,-1,41290.26428925,unknown,2,2023-02-25T18:26:46.173-08:00,2023-02-23T12:03:25.234-08:00,4999,1.574048,0,0,3946.346,6,4,2023-02-25T18:25:24.830-08:00,699071206.2488692,0,80.89,97.71666,1,0.7
2023-02-25T18:26:47.389-08:00,1677378404.564249,34.25725605472785,-118.5949916424127,298.087,-1,-1,-1,-1,77.79964447021484,40,-9999,41291.49036379167,-0.82080078125,0.2878265380859375,-0.0045166015625,41291.44691979167,-2.816851238065825,-1.250699885657249,-0.4067715617529797,1.44868540763855,0.4631200134754181,2.538259744644165,0.06897258758544922,-0.05651980638504028,0.2326017022132874,XArbitraryZVertical,-0.5922479161780818,0.06892710707537814,-0.7644886450682036,0.2450480605764238,-0.8717526793479919,0.3956463932991028,-0.2889829277992249,0,0,0,-1,-1,41290.26428925,unknown,2,2023-02-25T18:26:46.173-08:00,2023-02-23T12:03:25.234-08:00,4999,1.574048,0,0,3946.346,6,4,2023-02-25T18:25:24.830-08:00,699071206.2488692,0,80.89,97.71666,1,0.7
2023-02-25T18:26:47.419-08:00,1677378404.564249,34.25725605472785,-118.5949916424127,298.087,-1,-1,-1,-1,77.79964447021484,40,-9999,41291.52383979167,-0.8455657958984375,0.249420166015625,0.0068359375,41291.50648579167,-2.67759368848823,-1.152358205770975,-0.5138728592675318,1.074042201042175,0.7574238181114197,2.216914653778076,-0.03900206089019775,-0.2248147130012512,0.3588138818740845,XArbitraryZVertical,-0.5618163616174416,0.08622651542448501,-0.7574620214665234,0.3212143658506784,-0.7957147359848022,0.4915536046028137,-0.3538547158241272,0,0,0,-1,-1,41290.26428925,unknown,2,2023-02-25T18:26:46.173-08:00,2023-02-23T12:03:25.234-08:00,4999,1.574048,0,0,3946.346,6,4,2023-02-25T18:25:24.830-08:00,699071206.2488692,0,80.89,97.71666,1,0.7
2023-02-25T18:26:47.455-08:00,1677378404.564249,34.25725605472785,-118.5949916424127,298.087,-1,-1,-1,-1,77.79964447021484,40,-9999,41291.55735579167,-0.885406494140625,0.225616455078125,0.0081329345703125,41291.50648579167,-2.67759368848823,-1.152358205770975,-0.5138728592675318,1.074042201042175,0.7574238181114197,2.216914653778076,-0.03900206089019775,-0.2248147130012512,0.3588138818740845,XArbitraryZVertical,-0.5618163616174416,0.08622651542448501,-0.7574620214665234,0.3212143658506784,-0.7957147359848022,0.4915536046028137,-0.3538547158241272,0,0,0,-1,-1,41290.26428925,unknown,2,2023-02-25T18:26:46.173-08:00,2023-02-23T12:03:25.234-08:00,4999,1.574048,0,0,3946.346,6,4,2023-02-25T18:25:24.830-08:00,699071206.2488692,0,80.89,97.71666,1,0.7
2023-02-25T18:26:47.489-08:00,1677378404.564249,34.25725605472785,-118.5949916424127,298.087,-1,-1,-1,-1,77.79964447021484,40,-9999,41291.59087179167,-0.8260498046875,0.1679229736328125,0.04266357421875,41291.56605279167,-2.572456141635127,-1.047081628092657,-0.5956076577298396,0.2827246487140656,0.9191371202468872,1.554681181907654,-0.1728396415710449,-0.3466716408729553,0.4272621273994446,XArbitraryZVertical,-0.530064241073077,0.1097195927361046,-0.7534526010285786,0.373232927350998,-0.7168546319007874,0.5610119104385376,-0.413987010717392,0,0,0,-1,-1,41290.26428925,unknown,2,2023-02-25T18:26:46.173-08:00,2023-02-23T12:03:25.234-08:00,4999,1.574048,0,0,3946.346,6,4,2023-02-25T18:25:24.830-08:00,699071206.2488692,0,80.89,97.71666,1,0.7
2023-02-25T18:26:47.524-08:00,1677378404.564249,34.25725605472785,-118.5949916424127,298.087,-1,-1,-1,-1,77.79964447021484,40,-9999,41291.62438779167,-0.78265380859375,0.1558837890625,0.0546875,41291.56605279167,-2.572456141635127,-1.047081628092657,-0.5956076577298396,0.2827246487140656,0.9191371202468872,1.554681181907654,-0.1728396415710449,-0.3466716408729553,0.4272621273994446,XArbitraryZVertical,-0.530064241073077,0.1097195927361046,-0.7534526010285786,0.373232927350998,-0.7168546319007874,0.5610119104385376,-0.413987010717392,0,0,0,-1,-1,41290.26428925,unknown,2,2023-02-25T18:26:46.173-08:00,2023-02-23T12:03:25.234-08:00,4999,1.574048,0,0,3946.346,6,4,2023-02-25T18:25:24.830-08:00,699071206.2488692,0,80.89,97.71666,1,0.7
2023-02-25T18:26:47.554-08:00,1677378404.564249,34.25725605472785,-118.5949916424127,298.087,-1,-1,-1,-1,77.79964447021484,40,-9999,41291.65786379167,-0.81591796875,0.1965789794921875,0.036590576171875,41291.62561879167,-2.540330373798874,-0.9730668083672769,-0.6650249799323186,-0.6984617710113525,0.8028786778450012,0.8078350424766541,-0.1321889758110046,-0.4611951112747192,0.4975297152996063,XArbitraryZVertical,-0.507575575407075,0.1447271839261024,-0.7528712324945728,0.3931994980921271,-0.6504647731781006,0.6170787811279297,-0.4428421556949615,0,0,0,-1,-1,41290.26428925,unknown,2,2023-02-25T18:26:46.173-08:00,2023-02-23T12:03:25.234-08:00,4999,1.574048,0,0,3946.346,6,4,2023-02-25T18:25:24.830-08:00,699071206.2488692,0,80.89,97.71666,1,0.7
2023-02-25T18:26:47.588-08:00,1677378404.564249,34.25725605472785,-118.5949916424127,298.087,-1,-1,-1,-1,77.79964447021484,40,-9999,41291.69137979167,-0.928070068359375,0.2550048828125,-0.0311126708984375,41291.68518479167,-2.582033376514735,-0.9679843274800577,-0.706417212167061,-0.7832472324371338,0.2218133956193924,-0.3778343498706818,-0.2806103825569153,-0.4107703566551208,0.4226312339305878,XArbitraryZVertical,-0.5041650015426348,0.1737129493476827,-0.7537617684202027,0.3840371530816677,-0.6266161799430847,0.6491125226020813,-0.4312829375267029,0,0,0,-1,-1,41290.26428925,unknown,2,2023-02-25T18:26:46.173-08:00,2023-02-23T12:03:25.234-08:00,4999,1.574048,0,0,3946.346,6,4,2023-02-25T18:25:24.830-08:00,699071206.2488692,0,80.89,97.71666,1,0.7
2023-02-25T18:26:47.623-08:00,1677378404.564249,34.25725605472785,-118.5949916424127,298.087,-1,-1,-1,-1,77.79964447021484,40,-9999,41291.72489579167,-1.021148681640625,0.324462890625,-0.109222412109375,41291.68518479167,-2.582033376514735,-0.9679843274800577,-0.706417212167061,-0.7832472324371338,0.2218133956193924,-0.3778343498706818,-0.2806103825569153,-0.4107703566551208,0.4226312339305878,XArbitraryZVertical,-0.5041650015426348,0.1737129493476827,-0.7537617684202027,0.3840371530816677,-0.6266161799430847,0.6491125226020813,-0.4312829375267029,0,0,0,-1,-1,41290.26428925,unknown,2,2023-02-25T18:26:46.173-08:00,2023-02-23T12:03:25.234-08:00,4999,1.574048,0,0,3946.346,6,4,2023-02-25T18:25:24.830-08:00,699071206.2488692,0,80.89,97.71666,1,0.7
2023-02-25T18:26:47.657-08:00,1677378404.564249,34.25725605472785,-118.5949916424127,298.087,-1,-1,-1,-1,77.79964447021484,40,-9999,41291.75841179167,-1.161376953125,0.3207855224609375,-0.1444244384765625,41291.74475179167,-2.659340686808372,-1.020813314152618,-0.6694346335060071,-0.1567927896976471,-0.3695244789123535,-1.773258090019226,-0.4308928847312927,-0.293562114238739,0.2826836705207825,XArbitraryZVertical,-0.5165180410746102,0.1681554617955128,-0.7619574672208171,0.3526383328365954,-0.6685334444046021,0.6205427646636963,-0.4098657071590424,0,0,0,-1,-1,41290.26428925,unknown,2,2023-02-25T18:26:46.173-08:00,2023-02-23T12:03:25.234-08:00,4999,1.574048,0,0,3946.346,6,4,2023-02-25T18:25:24.830-08:00,699071206.2488692,0,80.89,97.71666,1,0.7
2023-02-25T18:26:47.687-08:00,1677378404.564249,34.25725605472785,-118.5949916424127,298.087,-1,-1,-1,-1,77.79964447021484,40,-9999,41291.79188779167,-1.137710571289062,0.3864898681640625,-0.2421875,41291.74475179167,-2.659340686808372,-1.020813314152618,-0.6694346335060071,-0.1567927896976471,-0.3695244789123535,-1.773258090019226,-0.4308928847312927,-0.293562114238739,0.2826836705207825,XArbitraryZVertical,-0.5165180410746102,0.1681554617955128,-0.7619574672208171,0.3526383328365954,-0.6685334444046021,0.6205427646636963,-0.4098657071590424,0,0,0,-1,-1,41290.26428925,unknown,2,2023-02-25T18:26:46.173-08:00,2023-02-23T12:03:25.234-08:00,4999,1.574048,0,0,3946.346,6,4,2023-02-25T18:25:24.830-08:00,699071206.2488692,0,80.89,97.71666,1,0.7
2023-02-25T18:26:47.724-08:00,1677378404.564249,34.25725605472785,-118.5949916424127,298.087,-1,-1,-1,-1,77.79964447021484,40,-9999,41291.82540291667,-0.9253997802734375,0.4859771728515625,-0.3976898193359375,41291.80431691667,-2.733013772765926,-1.097990615907562,-0.5400265090471301,0.4379762709140778,-0.7156704068183899,-2.866256952285767,-0.30184406042099,-0.08999490737915039,0.09215092658996582,XArbitraryZVertical,-0.5386276142094976,0.1207854644837519,-0.7768062164271069,0.303089667674649,-0.7636008858680725,0.5141587257385254,-0.3905823230743408,0,0,0,-1,-1,41290.26428925,unknown,2,2023-02-25T18:26:46.173-08:00,2023-02-23T12:03:25.234-08:00,4999,1.574048,0,0,3946.346,6,4,2023-02-25T18:25:24.830-08:00,699071206.2488692,0,80.89,97.71666,1,0.7
2023-02-25T18:26:47.757-08:00,1677378404.564249,34.25725605472785,-118.5949916424127,298.087,-1,-1,-1,-1,77.79964447021484,40,-9999,41291.85891891667,-0.91778564453125,0.5046539306640625,-0.46405029296875,41291.80431691667,-2.733013772765926,-1.097990615907562,-0.5400265090471301,0.4379762709140778,-0.7156704068183899,-2.866256952285767,-0.30184406042099,-0.08999490737915039,0.09215092658996582,XArbitraryZVertical,-0.5386276142094976,0.1207854644837519,-0.7768062164271069,0.303089667674649,-0.7636008858680725,0.5141587257385254,-0.3905823230743408,0,0,0,-1,-1,41290.26428925,unknown,2,2023-02-25T18:26:46.173-08:00,2023-02-23T12:03:25.234-08:00,4999,1.574048,0,0,3946.346,6,4,2023-02-25T18:25:24.830-08:00,699071206.2488692,0,80.89,97.71666,1,0.7
2023-02-25T18:26:47.791-08:00,1677378404.564249,34.25725605472785,-118.5949916424127,298.087,-1,-1,-1,-1,77.79964447021484,40,-9999,41291.89243491667,-1.162490844726562,0.3868408203125,-0.3825836181640625,41291.86388291667,-2.766427320230132,-1.175241635995738,-0.3745079302055819,1.075146436691284,-1.454726219177246,-2.282588481903076,-0.08343791961669922,0.1304927468299866,-0.1037896275520325,XArbitraryZVertical,-0.5640293934829632,0.05064079670136906,-0.7841228833673648,0.2538851683309364,-0.8588228225708008,0.365814596414566,-0.3586127161979675,0,0,0,-1,-1,41290.26428925,unknown,2,2023-02-25T18:26:46.173-08:00,2023-02-23T12:03:25.234-08:00,4999,1.574048,0,0,3946.346,6,4,2023-02-25T18:25:24.830-08:00,699071206.2488692,0,80.89,97.71666,1,0.7
2023-02-25T18:26:47.822-08:00,1677378404.564249,34.25725605472785,-118.5949916424127,298.087,-1,-1,-1,-1,77.79964447021484,40,-9999,41291.92591091667,-1.082290649414062,0.2721099853515625,-0.2793426513671875,41291.86388291667,-2.766427320230132,-1.175241635995738,-0.3745079302055819,1.075146436691284,-1.454726219177246,-2.282588481903076,-0.08343791961669922,0.1304927468299866,-0.1037896275520325,XArbitraryZVertical,-0.5640293934829632,0.05064079670136906,-0.7841228833673648,0.2538851683309364,-0.8588228225708008,0.365814596414566,-0.3586127161979675,0,0,0,-1,-1,41290.26428925,unknown,2,2023-02-25T18:26:46.173-08:00,2023-02-23T12:03:25.234-08:00,4999,1.574048,0,0,3946.346,6,4,2023-02-25T18:25:24.830-08:00,699071206.2488692,0,80.89,97.71666,1,0.7
2023-02-25T18:26:47.856-08:00,1677378404.564249,34.25725605472785,-118.5949916424127,298.087,-1,-1,-1,-1,77.79964447021484,40,-9999,41291.95942791667,-0.8254547119140625,0.2197265625,-0.237152099609375,41291.92344891667,-2.732997578989189,-1.246325177894262,-0.2569417983010883,0.9852191209793091,-0.8523097634315491,-1.125545740127563,-0.1964550018310547,0.02410483360290527,0.01587647199630737,XArbitraryZVertical,-0.5878667101505781,-0.01555310800704651,-0.7734273010861162,0.2366032390820331,-0.9167041778564453,0.2541239261627197,-0.3083416521549225,0,0,0,-1,-1,41290.26428925,unknown,2,2023-02-25T18:26:46.173-08:00,2023-02-23T12:03:25.234-08:00,4999,1.574048,0,0,3946.346,6,4,2023-02-25T18:25:24.830-08:00,699071206.2488692,0,80.89,97.71666,1,0.7
2023-02-25T18:26:47.891-08:00,1677378404.564249,34.25725605472785,-118.5949916424127,298.087,-1,-1,-1,-1,77.79964447021484,40,-9999,41291.99294391667,-0.7520904541015625,0.214019775390625,-0.2210845947265625,41291.98301591667,-2.743519998132316,-1.288412489871274,-0.206030913232244,-0.9449300765991211,-0.6022879481315613,-0.699249267578125,0.176578164100647,-0.002031251788139343,0.04368773102760315,XArbitraryZVertical,-0.6018439603508947,-0.03751697238025159,-0.7674247914707835,0.2177967256949509,-0.9400820732116699,0.2045763731002808,-0.2727526426315308,0,0,0,-1,-1,41290.26428925,unknown,2,2023-02-25T18:26:46.173-08:00,2023-02-23T12:03:25.234-08:00,4999,1.574048,0,0,3946.346,6,4,2023-02-25T18:25:24.830-08:00,699071206.2488692,0,80.89,97.71666,1,0.7
2023-02-25T18:26:47.925-08:00,1677378404.564249,34.25725605472785,-118.5949916424127,298.087,-1,-1,-1,-1,77.79964447021484,40,-9999,41292.02645891667,-0.7445068359375,0.329010009765625,-0.245269775390625,41291.98301591667,-2.743519998132316,-1.288412489871274,-0.206030913232244,-0.9449300765991211,-0.6022879481315613,-0.699249267578125,0.176578164100647,-0.002031251788139343,0.04368773102760315,XArbitraryZVertical,-0.6018439603508947,-0.03751697238025159,-0.7674247914707835,0.2177967256949509,-0.9400820732116699,0.2045763731002808,-0.2727526426315308,0,0,0,-1,-1,41290.26428925,unknown,2,2023-02-25T18:26:46.173-08:00,2023-02-23T12:03:25.234-08:00,4999,1.574048,0,0,3946.346,6,4,2023-02-25T18:25:24.830-08:00,699071206.2488692,0,80.89,97.71666,1,0.7
2023-02-25T18:26:47.955-08:00,1677378404.564249,34.25725605472785,-118.5949916424127,298.087,-1,-1,-1,-1,77.79964447021484,40,-9999,41292.05993591667,-0.728912353515625,0.472747802734375,-0.302886962890625,41292.04258191667,-2.855576581827012,-1.336312106625413,-0.1891594705977374,-2.04550838470459,-0.3891890048980713,-0.8239338994026184,0.2221765518188477,0.2064520418643951,-0.03404057025909424,XArbitraryZVertical,-0.6210398022627656,-0.01452838554611868,-0.7651410796004874,0.1692854092158139,-0.9552850127220154,0.1880334317684174,-0.2281969785690308,0,0,0,-1,-1,41290.26428925,unknown,2,2023-02-25T18:26:46.173-08:00,2023-02-23T12:03:25.234-08:00,4999,1.574048,0,0,3946.346,6,4,2023-02-25T18:25:24.830-08:00,699071206.2488692,0,80.89,97.71666,1,0.7
2023-02-25T18:26:47.991-08:00,1677378404.564249,34.25725605472785,-118.5949916424127,298.087,-1,-1,-1,-1,77.79964447021484,40,-9999,41292.09345191667,-0.8038482666015625,0.59307861328125,-0.408599853515625,41292.04258191667,-2.855576581827012,-1.336312106625413,-0.1891594705977374,-2.04550838470459,-0.3891890048980713,-0.8239338994026184,0.2221765518188477,0.2064520418643951,-0.03404057025909424,XArbitraryZVertical,-0.6210398022627656,-0.01452838554611868,-0.7651410796004874,0.1692854092158139,-0.9552850127220154,0.1880334317684174,-0.2281969785690308,0,0,0,-1,-1,41290.26428925,unknown,2,2023-02-25T18:26:46.173-08:00,2023-02-23T12:03:25.234-08:00,4999,1.574048,0,0,3946.346,6,4,2023-02-25T18:25:24.830-08:00,699071206.2488692,0,80.89,97.71666,1,0.7
2023-02-25T18:26:48.025-08:00,1677378404.564249,34.25725605472785,-118.5949916424127,298.087,-1,-1,-1,-1,77.79964447021484,40,-9999,41292.12696791667,-0.7386627197265625,0.613433837890625,-0.4588165283203125,41292.10214791667,-2.948295360785527,-1.384680304238356,-0.1546852497334767,-0.4323102235794067,-0.6112769246101379,-0.9390217065811157,0.166034460067749,0.4507587552070618,-0.2404600381851196,XArbitraryZVertical,-0.6392011359075503,-0.002216653132044388,-0.7591121040831625,0.123149414447805,-0.970996618270874,0.154069110751152,-0.1828339844942093,0,0,0,-1,-1,41290.26428925,unknown,2,2023-02-25T18:26:46.173-08:00,2023-02-23T12:03:25.234-08:00,4999,1.574048,0,0,3946.346,6,4,2023-02-25T18:25:24.830-08:00,699071206.2488692,0,80.89,97.71666,1,0.7
2023-02-25T18:26:48.059-08:00,1677378404.564249,34.25725605472785,-118.5949916424127,298.087,-1,-1,-1,-1,77.79964447021484,40,-9999,41292.16048391667,-0.7175445556640625,0.5681304931640625,-0.4568328857421875,41292.10214791667,-2.948295360785527,-1.384680304238356,-0.1546852497334767,-0.4323102235794067,-0.6112769246101379,-0.9390217065811157,0.166034460067749,0.4507587552070618,-0.2404600381851196,XArbitraryZVertical,-0.6392011359075503,-0.002216653132044388,-0.7591121040831625,0.123149414447805,-0.970996618270874,0.154069110751152,-0.1828339844942093,0,0,0,-1,-1,41290.26428925,unknown,2,2023-02-25T18:26:46.173-08:00,2023-02-23T12:03:25.234-08:00,4999,1.574048,0,0,3946.346,6,4,2023-02-25T18:25:24.830-08:00,699071206.2488692,0,80.89,97.71666,1,0.7
2023-02-25T18:26:48.090-08:00,1677378404.564249,34.25725605472785,-118.5949916424127,298.087,-1,-1,-1,-1,77.79964447021484,40,-9999,41292.19395991667,-0.7208251953125,0.482940673828125,-0.408447265625,41292.16171491667,-2.924057341686599,-1.425690852286175,-0.1047477975635019,1.391015768051147,-0.8561327457427979,-0.4606900811195374,0.2665227055549622,0.4635741412639618,-0.3130286335945129,XArbitraryZVertical,-0.6535319096557588,-0.0315264056827218,-0.7472859554602858,0.1160424075670053,-0.9840672612190247,0.1045563519001007,-0.1438042521476746,0,0,0,-1,-1,41290.26428925,unknown,2,2023-02-25T18:26:46.173-08:00,2023-02-23T12:03:25.234-08:00,4999,1.574048,0,0,3946.346,6,4,2023-02-25T18:25:24.830-08:00,699071206.2488692,0,80.89,97.71666,1,0.7
2023-02-25T18:26:48.124-08:00,1677378404.564249,34.25725605472785,-118.5949916424127,298.087,-1,-1,-1,-1,77.79964447021484,40,-9999,41292.22747591667,-0.7742919921875,0.3764801025390625,-0.353607177734375,41292.22128091667,-2.821585373247473,-1.466689918126733,-0.08580275755730102,1.8165043592453,-0.8106347322463989,0.2791894674301147,0.24172043800354,0.3095966875553131,-0.2580971121788025,XArbitraryZVertical,-0.6652770695412757,-0.0750889072139459,-0.728201126733794,0.146598445452336,-0.9909268617630005,0.08569751679897308,-0.1035361513495445,0,0,0,-1,-1,41290.26428925,unknown,2,2023-02-25T18:26:46.173-08:00,2023-02-23T12:03:25.234-08:00,4999,1.574048,0,0,3946.346,6,4,2023-02-25T18:25:24.830-08:00,699071206.2488692,0,80.89,97.71666,1,0.7
2023-02-25T18:26:48.159-08:00,1677378404.564249,34.25725605472785,-118.5949916424127,298.087,-1,-1,-1,-1,77.79964447021484,40,-9999,41292.26099191667,-0.988983154296875,0.3597564697265625,-0.337554931640625,41292.22128091667,-2.821585373247473,-1.466689918126733,-0.08580275755730102,1.8165043592453,-0.8106347322463989,0.2791894674301147,0.24172043800354,0.3095966875553131,-0.2580971121788025,XArbitraryZVertical,-0.6652770695412757,-0.0750889072139459,-0.728201126733794,0.146598445452336,-0.9909268617630005,0.08569751679897308,-0.1035361513495445,0,0,0,-1,-1,41290.26428925,unknown,2,2023-02-25T18:26:46.173-08:00,2023-02-23T12:03:25.234-08:00,4999,1.574048,0,0,3946.346,6,4,2023-02-25T18:25:24.830-08:00,699071206.2488692,0,80.89,97.71666,1,0.7
2023-02-25T18:26:48.194-08:00,1677378404.564249,34.25725605472785,-118.5949916424127,298.087,-1,-1,-1,-1,77.79964447021484,40,-9999,41292.29450791667,-1.123260498046875,0.2953338623046875,-0.27740478515625,41292.28084691667,-2.724525168715299,-1.492442127396498,-0.1117785243738812,1.110047936439514,-0.2334076464176178,0.7811446189880371,-0.09850782155990601,0.2156940698623657,-0.2352179884910583,XArbitraryZVertical,-0.6716158700759637,-0.1001965306365715,-0.7093796903772021,0.1888733430022111,-0.9907101988792419,0.1115458980202675,-0.07778555899858475,0,0,0,-1,-1,41290.26428925,unknown,2,2023-02-25T18:26:46.173-08:00,2023-02-23T12:03:25.234-08:00,4999,1.574048,0,0,3946.346,6,4,2023-02-25T18:25:24.830-08:00,699071206.2488692,0,80.89,97.71666,1,0.7
2023-02-25T18:26:48.224-08:00,1677378404.564249,34.25725605472785,-118.5949916424127,298.087,-1,-1,-1,-1,77.79964447021484,40,-9999,41292.32798391667,-1.176239013671875,0.2315826416015625,-0.1741180419921875,41292.28084691667,-2.724525168715299,-1.492442127396498,-0.1117785243738812,1.110047936439514,-0.2334076464176178,0.7811446189880371,-0.09850782155990601,0.2156940698623657,-0.2352179884910583,XArbitraryZVertical,-0.6716158700759637,-0.1001965306365715,-0.7093796903772021,0.1888733430022111,-0.9907101988792419,0.1115458980202675,-0.07778555899858475,0,0,0,-1,-1,41290.26428925,unknown,2,2023-02-25T18:26:46.173-08:00,2023-02-23T12:03:25.234-08:00,4999,1.574048,0,0,3946.346,6,4,2023-02-25T18:25:24.830-08:00,699071206.2488692,0,80.89,97.71666,1,0.7
2023-02-25T18:26:48.259-08:00,1677378404.564249,34.25725605472785,-118.5949916424127,298.087,-1,-1,-1,-1,77.79964447021484,40,-9999,41292.36149991667,-1.396209716796875,0.274322509765625,-0.155914306640625,41292.34041391667,-2.707652879843648,-1.481886640435503,-0.1611168437723381,-0.7028427720069885,0.3299739360809326,0.8144505023956299,-0.2452892661094666,0.06635542213916779,-0.0721931979060173,XArbitraryZVertical,-0.6698026012308467,-0.08685140940571762,-0.7065034768908383,0.2113625197797704,-0.9831500053405762,0.160420686006546,-0.0876426175236702,0,0,0,-1,-1,41290.26428925,unknown,2,2023-02-25T18:26:46.173-08:00,2023-02-23T12:03:25.234-08:00,4999,1.574048,0,0,3946.346,6,4,2023-02-25T18:25:24.830-08:00,699071206.2488692,0,80.89,97.71666,1,0.7
2023-02-25T18:26:48.293-08:00,1677378404.564249,34.25725605472785,-118.5949916424127,298.087,-1,-1,-1,-1,77.79964447021484,40,-9999,41292.39501591667,-1.521453857421875,0.482635498046875,-0.270172119140625,41292.34041391667,-2.707652879843648,-1.481886640435503,-0.1611168437723381,-0.7028427720069885,0.3299739360809326,0.8144505023956299,-0.2452892661094666,0.06635542213916779,-0.0721931979060173,XArbitraryZVertical,-0.6698026012308467,-0.08685140940571762,-0.7065034768908383,0.2113625197797704,-0.9831500053405762,0.160420686006546,-0.0876426175236702,0,0,0,-1,-1,41290.26428925,unknown,2,2023-02-25T18:26:46.173-08:00,2023-02-23T12:03:25.234-08:00,4999,1.574048,0,0,3946.346,6,4,2023-02-25T18:25:24.830-08:00,699071206.2488692,0,80.89,97.71666,1,0.7
2023-02-25T18:26:48.328-08:00,1677378404.564249,34.25725605472785,-118.5949916424127,298.087,-1,-1,-1,-1,77.79964447021484,40,-9999,41292.42853191667,-1.203994750976562,0.6262359619140625,-0.2687530517578125,41292.39997991667,-2.791880274128852,-1.468675378747855,-0.2140954209013083,-1.913742899894714,0.7690629363059998,0.6023297309875488,-0.534773051738739,0.2943112850189209,-0.1791925430297852,XArbitraryZVertical,-0.6698973332039906,-0.03780909989953479,-0.7143169382235479,0.1988953653449679,-0.9720781445503235,0.2124635875225067,-0.09961607307195663,0,0,0,-1,-1,41290.26428925,unknown,2,2023-02-25T18:26:46.173-08:00,2023-02-23T12:03:25.234-08:00,4999,1.574048,0,0,3946.346,6,4,2023-02-25T18:25:24.830-08:00,699071206.2488692,0,80.89,97.71666,1,0.7
2023-02-25T18:26:48.358-08:00,1677378404.564249,34.25725605472785,-118.5949916424127,298.087,-1,-1,-1,-1,77.79964447021484,40,-9999,41292.46200791667,-0.9375762939453125,0.555816650390625,-0.254547119140625,41292.45954591667,-2.875957886658772,-1.450453924601603,-0.263092205389637,-0.4954780042171478,0.3015526831150055,0.9684171676635742,0.004703640937805176,0.3101380467414856,-0.1387021988630295,XArbitraryZVertical,-0.6647819899906504,0.01021343514645745,-0.7238276520015869,0.1844830820427841,-0.9586067795753479,0.2600675821304321,-0.1159211844205856,0,0,0,-1,-1,41290.26428925,unknown,2,2023-02-25T18:26:46.173-08:00,2023-02-23T12:03:25.234-08:00,4999,1.574048,0,0,3946.346,6,4,2023-02-25T18:25:24.830-08:00,699071206.2488692,0,80.89,97.71666,1,0.7
2023-02-25T18:26:48.392-08:00,1677378404.564249,34.25725605472785,-118.5949916424127,298.087,-1,-1,-1,-1,77.79964447021484,40,-9999,41292.49552391667,-0.9786224365234375,0.4540252685546875,-0.194000244140625,41292.45954591667,-2.875957886658772,-1.450453924601603,-0.263092205389637,-0.4954780042171478,0.3015526831150055,0.9684171676635742,0.004703640937805176,0.3101380467414856,-0.1387021988630295,XArbitraryZVertical,-0.6647819899906504,0.01021343514645745,-0.7238276520015869,0.1844830820427841,-0.9586067795753479,0.2600675821304321,-0.1159211844205856,0,0,0,-1,-1,41290.26428925,unknown,2,2023-02-25T18:26:46.173-08:00,2023-02-23T12:03:25.234-08:00,4999,1.574048,0,0,3946.346,6,4,2023-02-25T18:25:24.830-08:00,699071206.2488692,0,80.89,97.71666,1,0.7
2023-02-25T18:26:48.427-08:00,1677378404.564249,34.25725605472785,-118.5949916424127,298.087,-1,-1,-1,-1,77.79964447021484,40,-9999,41292.52903991667,-1.129989624023438,0.4272308349609375,-0.13092041015625,41292.51911191667,-2.811522053644917,-1.430485826624069,-0.3407826720560282,1.924151420593262,-0.1137702018022537,1.798942446708679,-0.1524621844291687,0.1090886890888214,-0.006436347961425781,XArbitraryZVertical,-0.6585530470002565,0.02009387989438854,-0.7156231289370877,0.2319217629022153,-0.9332311749458313,0.3342248499393463,-0.1318082362413406,0,0,0,-1,-1,41290.26428925,unknown,2,2023-02-25T18:26:46.173-08:00,2023-02-23T12:03:25.234-08:00,4999,1.574048,0,0,3946.346,6,4,2023-02-25T18:25:24.830-08:00,699071206.2488692,0,80.89,97.71666,1,0.7
2023-02-25T18:26:48.462-08:00,1677378404.564249,34.25725605472785,-118.5949916424127,298.087,-1,-1,-1,-1,77.79964447021484,40,-9999,41292.56255591667,-1.1533203125,0.3554840087890625,-0.092681884765625,41292.51911191667,-2.811522053644917,-1.430485826624069,-0.3407826720560282,1.924151420593262,-0.1137702018022537,1.798942446708679,-0.1524621844291687,0.1090886890888214,-0.006436347961425781,XArbitraryZVertical,-0.6585530470002565,0.02009387989438854,-0.7156231289370877,0.2319217629022153,-0.9332311749458313,0.3342248499393463,-0.1318082362413406,0,0,0,-1,-1,41290.26428925,unknown,2,2023-02-25T18:26:46.173-08:00,2023-02-23T12:03:25.234-08:00,4999,1.574048,0,0,3946.346,6,4,2023-02-25T18:25:24.830-08:00,699071206.2488692,0,80.89,97.71666,1,0.7
2023-02-25T18:26:48.492-08:00,1677378404.564249,34.25725605472785,-118.5949916424127,298.087,-1,-1,-1,-1,77.79964447021484,40,-9999,41292.59603191667,-1.0980224609375,0.2527923583984375,-0.0180206298828125,41292.57867891667,-2.654074989440795,-1.363788898489815,-0.4213476375214903,2.102193117141724,0.4388410449028015,1.58927321434021,-0.2293192744255066,-0.09133318066596985,0.1350505501031876,XArbitraryZVertical,-0.6372946690719479,0.008803631937136347,-0.7049600260259619,0.3111419233348403,-0.8930561542510986,0.4089905917644501,-0.1875559985637665,0,0,0,-1,-1,41290.26428925,unknown,2,2023-02-25T18:26:46.173-08:00,2023-02-23T12:03:25.234-08:00,4999,1.574048,0,0,3946.346,6,4,2023-02-25T18:25:24.830-08:00,699071206.2488692,0,80.89,97.71666,1,0.7
2023-02-25T18:26:48.527-08:00,1677378404.564249,34.25725605472785,-118.5949916424127,298.087,-1,-1,-1,-1,77.79964447021484,40,-9999,41292.62954791667,-0.998870849609375,0.201812744140625,-0.0108642578125,41292.57867891667,-2.654074989440795,-1.363788898489815,-0.4213476375214903,2.102193117141724,0.4388410449028015,1.58927321434021,-0.2293192744255066,-0.09133318066596985,0.1350505501031876,XArbitraryZVertical,-0.6372946690719479,0.008803631937136347,-0.7049600260259619,0.3111419233348403,-0.8930561542510986,0.4089905917644501,-0.1875559985637665,0,0,0,-1,-1,41290.26428925,unknown,2,2023-02-25T18:26:46.173-08:00,2023-02-23T12:03:25.234-08:00,4999,1.574048,0,0,3946.346,6,4,2023-02-25T18:25:24.830-08:00,699071206.2488692,0,80.89,97.71666,1,0.7
2023-02-25T18:26:48.561-08:00,1677378404.564249,34.25725605472785,-118.5949916424127,298.087,-1,-1,-1,-1,77.79964447021484,40,-9999,41292.66306391667,-0.8484039306640625,0.2189788818359375,-0.0153961181640625,41292.63824491667,-2.545107331282958,-1.272762117144522,-0.4905549242704093,0.3476320803165436,0.9776028394699097,1.421179890632629,-0.1139368414878845,-0.2698063254356384,0.2392375767230988,XArbitraryZVertical,-0.6084367079022437,0.01727172077804978,-0.7033350770394449,0.3671867785671842,-0.8431858420372009,0.4711154401302338,-0.259012907743454,0,0,0,-1,-1,41290.26428925,unknown,2,2023-02-25T18:26:46.173-08:00,2023-02-23T12:03:25.234-08:00,4999,1.574048,0,0,3946.346,6,4,2023-02-25T18:25:24.830-08:00,699071206.2488692,0,80.89,97.71666,1,0.7
2023-02-25T18:26:48.596-08:00,1677378404.564249,34.25725605472785,-118.5949916424127,298.087,-1,-1,-1,-1,77.79964447021484,40,-9999,41292.69657991667,-0.829132080078125,0.223052978515625,0.0120697021484375,41292.63824491667,-2.545107331282958,-1.272762117144522,-0.4905549242704093,0.3476320803165436,0.9776028394699097,1.421179890632629,-0.1139368414878845,-0.2698063254356384,0.2392375767230988,XArbitraryZVertical,-0.6084367079022437,0.01727172077804978,-0.7033350770394449,0.3671867785671842,-0.8431858420372009,0.4711154401302338,-0.259012907743454,0,0,0,-1,-1,41290.26428925,unknown,2,2023-02-25T18:26:46.173-08:00,2023-02-23T12:03:25.234-08:00,4999,1.574048,0,0,3946.346,6,4,2023-02-25T18:25:24.830-08:00,699071206.2488692,0,80.89,97.71666,1,0.7
2023-02-25T18:26:48.626-08:00,1677378404.564249,34.25725605472785,-118.5949916424127,298.087,-1,-1,-1,-1,77.79964447021484,40,-9999,41292.73005591667,-0.762847900390625,0.24102783203125,0.0121307373046875,41292.69781091667,-2.52350698869334,-1.205929440135809,-0.5737258215921693,-0.5142964124679565,0.8479958176612854,1.403303861618042,-0.0445360541343689,-0.3197121620178223,0.3117614090442657,XArbitraryZVertical,-0.5890270997149618,0.05657937734655211,-0.7037722263817657,0.3931288393133512,-0.7845958471298218,0.5427650809288025,-0.2996917068958282,0,0,0,-1,-1,41290.26428925,unknown,2,2023-02-25T18:26:46.173-08:00,2023-02-23T12:03:25.234-08:00,4999,1.574048,0,0,3946.346,6,4,2023-02-25T18:25:24.830-08:00,699071206.2488692,0,80.89,97.71666,1,0.7
2023-02-25T18:26:48.660-08:00,1677378404.564249,34.25725605472785,-118.5949916424127,298.087,-1,-1,-1,-1,77.79964447021484,40,-9999,41292.76357191667,-0.739593505859375,0.27227783203125,-0.0064849853515625,41292.75737791667,-2.52659601644754,-1.163873969355866,-0.653578343433191,-0.3566461205482483,0.5695178508758545,0.9851710796356201,-0.01761931180953979,-0.346464991569519,0.3127234876155853,XArbitraryZVertical,-0.5773049163839747,0.09802865481384238,-0.7006735607607125,0.4076346829197579,-0.729084849357605,0.6080312132835388,-0.3142188191413879,0,0,0,-1,-1,41290.26428925,unknown,2,2023-02-25T18:26:46.173-08:00,2023-02-23T12:03:25.234-08:00,4999,1.574048,0,0,3946.346,6,4,2023-02-25T18:25:24.830-08:00,699071206.2488692,0,80.89,97.71666,1,0.7
2023-02-25T18:26:48.695-08:00,1677378404.564249,34.25725605472785,-118.5949916424127,298.087,-1,-1,-1,-1,77.79964447021484,40,-9999,41292.797088625,-0.651611328125,0.298553466796875,-0.0221099853515625,41292.75737791667,-2.52659601644754,-1.163873969355866,-0.653578343433191,-0.3566461205482483,0.5695178508758545,0.9851710796356201,-0.01761931180953979,-0.346464991569519,0.3127234876155853,XArbitraryZVertical,-0.5773049163839747,0.09802865481384238,-0.7006735607607125,0.4076346829197579,-0.729084849357605,0.6080312132835388,-0.3142188191413879,0,0,0,-1,-1,41290.26428925,unknown,2,2023-02-25T18:26:46.173-08:00,2023-02-23T12:03:25.234-08:00,4999,1.574048,0,0,3946.346,6,4,2023-02-25T18:25:24.830-08:00,699071206.2488692,0,80.89,97.71666,1,0.7
2023-02-25T18:26:48.729-08:00,1677378404.564249,34.25725605472785,-118.5949916424127,298.087,-1,-1,-1,-1,77.79964447021484,40,-9999,41292.830604625,-0.6091766357421875,0.2767486572265625,-0.0602569580078125,41292.816944625,-2.493794107936242,-1.117312577013003,-0.6868259422335282,0.577070415019989,0.2757621109485626,0.4146873950958252,0.08048200607299805,-0.3589547872543335,0.300573468208313,XArbitraryZVertical,-0.5640150075643755,0.1118211832476977,-0.7001373743953537,0.4233093222726212,-0.6951060891151428,0.634086012840271,-0.3387661874294281,0,0,0,-1,-1,41290.26428925,unknown,2,2023-02-25T18:26:46.173-08:00,2023-02-23T12:03:25.234-08:00,4999,1.574048,0,0,3946.346,6,4,2023-02-25T18:25:24.830-08:00,699071206.2488692,0,80.89,97.71666,1,0.7
2023-02-25T18:26:48.759-08:00,1677378404.564249,34.25725605472785,-118.5949916424127,298.087,-1,-1,-1,-1,77.79964447021484,40,-9999,41292.864081625,-0.656951904296875,0.2632293701171875,-0.0324554443359375,41292.816944625,-2.493794107936242,-1.117312577013003,-0.6868259422335282,0.577070415019989,0.2757621109485626,0.4146873950958252,0.08048200607299805,-0.3589547872543335,0.300573468208313,XArbitraryZVertical,-0.5640150075643755,0.1118211832476977,-0.7001373743953537,0.4233093222726212,-0.6951060891151428,0.634086012840271,-0.3387661874294281,0,0,0,-1,-1,41290.26428925,unknown,2,2023-02-25T18:26:46.173-08:00,2023-02-23T12:03:25.234-08:00,4999,1.574048,0,0,3946.346,6,4,2023-02-25T18:25:24.830-08:00,699071206.2488692,0,80.89,97.71666,1,0.7
