accelerometerAccelerationX,accelerometerAccelerationY,accelerometerAccelerationZ,gyroRotationX,gyroRotationY,gyroRotationZ,motionYaw,motionRoll,motionPitch,motionRotationRateX,motionRotationRateY,motionRotationRateZ,motionUserAccelerationX,motionUserAccelerationY,motionUserAccelerationZ
0.866294484,0.4784077,-0.211557062,0.016986885,0.053352332,0.011314416,2.392289491,1.385460303,-0.63203862,-0.021026548,0.036993822,0.030960629,0.052360141,0.019774254,0.064158388
0.562048458,1.20211728,-0.417859644,0.734229979,-1.323840261,0.296103547,1.660552333,-3.121581637,-1.33220492,1.833978537,-2.431673727,0.453275683,0.126367509,0.214289537,-0.267315379
0.085349468,0.896615067,0.574086236,0.529205609,1.447480034,-0.859285809,2.421808192,-0.080966497,-1.362584706,0.504675352,1.928087897,-0.955349886,0.167441216,-0.174135045,0.116782694
0.453790802,1.203345447,-0.097659902,-1.124820221,-0.439620655,0.093515515,-0.935372125,-0.113491056,-1.2458767,-0.143824565,-0.473870635,0.043890458,0.503709019,0.367183119,0.19001645
0.866748409,0.767825826,-0.048822298,-0.073340814,-0.10515123,0.065510259,0.871371381,1.514156296,-0.688127249,-0.049703256,-0.084888709,0.063381334,-0.027329082,-0.003526646,-0.08308693
-0.177663067,1.162005494,-0.491132782,-0.840072575,-2.408049431,1.209158431,-1.240949172,1.449594809,-1.343878734,-0.751211263,-2.711199486,1.025611838,-0.371166453,0.0704591,-0.613719777
0.184877714,1.078638735,0.013992405,0.369439521,-1.3842459,-0.110283588,-1.703411004,0.196362618,-1.291120071,0.551946386,-1.281347797,-0.126018019,-0.005041732,0.103603997,0.142098175
0.256172175,1.01203882,0.080163603,1.773467899,-2.526556134,-0.486883742,3.036103455,1.47921298,-1.441245336,1.915527678,-2.513146987,-0.315254638,0.152235338,-0.306404965,-0.114835507
0.763849366,0.509088405,-0.029537021,0.052091848,1.080954767,-0.297992272,-1.148114385,1.356578456,-0.754514492,0.042252941,0.880362533,-0.310628736,0.05854305,-0.161600293,0.097557881
0.731246916,0.540727007,-0.136778329,0.472487697,-0.893585169,-0.233830328,2.090772036,1.5617343,-0.601192384,0.526981853,-0.942510529,-0.292471895,-0.115547117,0.012008069,-0.021901228
0.270807107,1.082012607,-0.022904358,0.523441467,-0.062726058,-0.559267028,-2.561500218,-0.24825708,-1.289697457,0.629314324,-0.169929486,-0.521725337,0.329417999,0.093992311,0.28995713
-0.23652572,0.231937387,-0.106160824,-2.950444372,2.493886914,-0.058350899,0.434195234,-2.832850022,-1.159094903,-2.558008642,2.046752834,-0.698576171,0.425508498,-0.302868744,-0.483850083
0.257393841,0.811296735,-0.13804852,2.61918314,-1.678562896,-1.006717519,-2.922928911,-0.213922968,-1.403186311,3.223848337,-2.024557614,-0.985512976,0.216432392,-0.171949943,-0.107689604
0.524165209,0.550376131,0.02445336,1.105968415,0.640054761,-0.089555554,-2.870482701,1.747322319,-0.513577772,1.035379256,0.589221633,-0.141821348,-0.230229298,0.01749581,-0.043944604
0.058380678,0.913610846,-0.15970191,0.896512237,-1.080762128,-0.481579987,2.547170263,0.444509745,-1.326175364,2.139654689,-0.935914569,-0.351306386,-0.000237674,0.160862595,0.055150107
0.95136719,0.947358501,-0.469707159,-2.934351272,-0.236843154,1.649670447,-1.729389152,1.533427749,-0.692896665,-2.75040387,-0.465124212,1.722719563,-0.211174501,-0.086095722,0.057460532
-0.590234967,0.010391284,0.464574054,-1.310106185,-0.57951707,0.212237286,1.918677784,-2.76909737,-1.094527293,-2.028794331,0.382676885,0.609868521,0.169470841,0.544712254,0.024998156
-0.041852384,0.93148605,0.064426443,-1.462246787,-1.657029581,0.066951526,1.45895058,2.451114043,-1.442390246,-1.090297357,-2.490749243,0.186015136,-0.099437184,-0.17770398,-0.063778483
0.363425661,0.993372708,0.288721042,1.424629345,0.71558882,-0.748393085,-1.048385371,0.082761906,-1.375903917,1.812589549,0.736009173,-0.630469248,0.334707799,0.053747741,0.451987285
0.497985478,1.108350571,0.210922792,1.884803848,-0.119545676,-0.423988751,1.693814965,1.768041167,-1.157909439,2.447034626,-1.890985154,-0.843197387,0.389488438,0.077253737,0.024501865
-0.269678667,1.945101947,0.776544273,0.739434554,-0.889637408,-1.01606241,-1.468195241,-2.743639316,-1.139996764,0.880074113,0.702322698,0.720408485,-0.533205497,-0.268751485,-0.2637057
0.672176662,0.201749174,0.046841187,-0.474479384,-0.054872607,-0.30391247,2.592300874,1.696708034,-0.6136705,-0.455882072,-0.013396458,-0.175645796,-0.185128633,-0.168990443,-0.124528751
-0.013114272,1.104305542,-0.189120804,1.595753645,-1.575450241,-0.389569896,-1.086726463,-0.087337863,-1.32376181,1.375833658,-0.994878611,-0.534789706,0.075521085,-0.108111758,0.375325281
0.297083459,0.339145509,-0.520248373,2.494410142,-1.428949707,-0.328947912,1.813286314,0.368492492,-1.187321512,2.547547741,-1.665867495,-0.366903177,-0.27203207,-0.230606401,0.567628051
0.216387355,1.099021237,-0.335994736,-0.638052663,-0.925609246,-0.151680895,-0.632493939,0.573231524,-1.233262073,-2.630119595,1.384539508,0.606351905,0.008681626,0.404015009,-0.103903751
0.36831172,1.175665603,-0.176848656,0.08732902,0.328230138,0.537259374,-2.73585546,-0.507946002,-1.304675069,-0.240932735,-0.327347881,0.52106,0.155423266,0.266181764,0.18749135
0.726244654,0.673400571,-0.276372369,0.652498794,-0.057226435,-0.405383825,1.822428976,1.346760617,-0.74690413,0.72184012,0.373153633,-0.44693798,0.089311922,-0.117536257,-0.01359716
-0.27374985,1.278039929,0.125543676,0.613055338,-0.07270758,-0.404788879,1.403161076,2.336335926,-1.427413192,-0.481409651,0.563905316,-0.174160705,-0.033091692,0.167793583,0.108284717
-0.151221278,0.498167823,0.901534245,-2.372262161,2.642048678,-0.394371197,1.72881036,-2.794041291,-1.144769991,-2.911183825,1.821957331,-0.322664762,0.102767213,-0.294095933,-0.303526959
0.493964833,0.479079045,0.109216184,0.671007994,-2.333277651,1.080584069,-1.08006131,1.811102258,-0.541051049,0.654630964,-1.01734466,0.994129346,-0.130952313,0.567622866,0.006681584
0.909507224,0.355092113,-0.116241295,-0.241091319,0.004912192,-0.483022749,-1.671790555,1.430851817,-0.554919247,-0.218063772,-0.005680677,-0.509480829,0.074725463,-0.040124254,0.003645788
-0.003412251,0.950865402,0.026132326,-0.048750776,-0.169653091,-0.462568288,-1.10756682,-1.041195261,-1.386770829,-0.103584147,-0.127625733,-0.422966415,0.214750307,-0.020738648,-0.027755853
0.950306408,0.883101992,0.18987581,-1.75876448,3.063633848,0.969166246,2.944073495,1.627745661,-0.615809472,-3.070026345,2.582293417,1.544076884,-0.005812934,-0.114527101,0.2218251
0.905752479,0.602956245,-0.085884879,2.05889366,-2.838454764,2.37484218,1.731254327,1.421077665,-0.766890037,1.563561088,-2.358813953,2.895456174,0.0636319,1.359538976,-0.003826388
0.617045652,0.3681425,0.222872054,-0.035141149,0.167213006,-0.203345251,-1.477965255,1.730293155,-0.525794568,-0.105891086,0.134884322,-0.251081865,0.034335584,0.017605954,-0.103944312
0.165608985,1.045229935,-0.122286014,1.457973429,-0.866736388,-0.093535591,-1.11692656,0.178130838,-1.335213256,1.774240802,-0.896234877,-0.093702899,0.091634949,-0.049161981,0.038040029
-0.109069833,1.040348759,1.117449311,0.623834356,-0.103361716,-0.262624095,-3.036891388,0.212800368,-1.483837001,0.581470589,-0.255825655,-0.250532248,0.345981857,0.052248536,0.752220286
0.064278231,1.033374705,-0.135837276,0.112006664,1.064058456,-0.454488891,2.423770276,0.163762833,-1.347775037,0.209139271,1.152195817,-0.408894211,-0.023903206,0.011785202,0.00306343
-0.105691417,0.616105403,-0.327974043,1.871339901,-1.87913566,0.007403807,1.456236581,2.10909762,-1.48724216,2.071047491,-3.152951321,-0.194444324,-0.211015189,0.825707357,-0.204891362
0.569163773,1.060283104,-0.142484058,0.686242024,-1.554196274,-0.580933987,-0.803503001,-0.091657148,-1.31666979,0.37526173,-1.469246167,-0.302152301,0.433561407,0.119237956,0.279475539
0.694499719,0.639038023,-0.189242957,-0.526987413,-0.218969214,-0.116464181,0.953437079,1.46144366,-0.795750741,-0.487905315,-0.237986369,-0.096483022,0.001595032,-0.055075929,-0.082324817
-0.165280356,0.246258592,1.039093352,-2.114768884,-0.866582608,-0.485605988,3.002454741,-2.738676488,-1.017092713,-1.011110218,-1.772286729,-0.312540016,-0.034464409,-0.594362278,-0.102386117
0.057662844,1.004839895,-0.091862471,0.036017485,0.075323967,-0.00201903,0.078645465,0.439204004,-1.433885161,0.036343531,0.072936567,-0.002576814,0.006748128,0.003306287,-0.00596135
-0.182824854,0.982882828,-0.318423104,0.996445403,-1.365862011,0.530777431,1.812369007,-0.866834668,-1.158626011,0.801419916,-1.412122565,0.631035971,0.629325373,0.056002736,0.066911113
0.237117445,1.057087113,-0.274953844,0.622430594,-0.131902881,-0.148470631,-2.797503806,-0.491371674,-1.361716989,0.487977931,-0.05562423,-0.077084077,0.12403799,0.031657084,-0.042248677
0.0220884,1.029375117,-0.200321073,1.233449782,0.426523012,-0.360078901,-3.132654116,-0.136852981,-1.394097061,1.43855719,0.380584997,-0.290578102,0.071224527,0.034840376,0.102663276
-0.175760177,1.10246463,0.128816979,0.81205616,-0.007165475,-0.846425466,2.097033422,2.310793124,-1.438525464,0.939562611,0.083893145,-0.693290611,-0.194351583,-0.07748425,-0.120138836
0.04640443,1.128248858,1.057986399,-0.257815646,0.134294581,-1.222547203,-0.806593837,0.808718463,-1.396183348,-0.056894361,-0.048141814,-1.041776021,0.306578701,0.27330994,0.404164679
-0.039650975,0.394458204,-0.128966986,-1.591704266,1.806716181,-0.665012406,1.433073924,-2.859083328,-1.282035238,-2.099498298,2.010621398,-0.738153033,0.328778274,-0.148482748,-0.470074615
0.041587259,1.047924631,-0.117053663,1.883650086,-1.262951295,0.138137345,1.410231391,-0.977853887,-1.357917086,1.800308134,0.007239026,0.034560519,0.171059202,0.081586,0.087910068
0.780866438,0.553362064,0.16751556,-2.030244915,1.31658945,2.561148206,0.572783678,1.477872721,-0.677140743,-1.427041978,0.336617405,2.227266696,0.105439394,-0.061335813,0.031610545
1.733425627,-0.101206723,-0.059430932,-0.109973036,-0.863336292,0.243053261,1.6174759,-0.50807858,0.33170226,0.232150297,-0.24380589,0.052873516,1.093975507,-0.026892068,-0.146131445
0.150334204,0.867132624,0.116607287,0.287493764,-0.135174949,0.957516467,3.05360794,2.346623938,-1.349951381,0.516155718,0.584163958,0.706911971,-0.206540111,-0.229169342,-0.194052493
-0.044093934,1.049989276,0.053126872,0.73536034,-1.534449779,-0.307909019,1.175371576,-1.082282734,-1.388486769,0.438678195,-1.203351258,-0.584940958,0.038075895,0.025915594,-0.023654672
-0.064992332,0.973894288,-0.095821235,0.665608371,0.878025534,-1.080825591,-2.685709483,-0.385234844,-1.42313681,1.152234942,0.950149718,-1.028856774,-0.080677418,-0.040010442,0.030542783
0.067398015,0.86712416,-0.143651385,0.707103625,0.273424725,-0.25111251,1.853098975,1.265488666,-1.322337578,0.508408999,1.21708765,-0.220972473,-0.227490479,-0.145404294,-0.07347389
0.032652156,0.918623422,0.096966365,-0.273326182,1.569994158,0.111893785,1.885836246,1.155221497,-1.48220933,-0.270643391,1.179244769,0.124930642,-0.002500927,-0.005992472,0.430515133
0.405323047,0.838893853,-0.396199245,1.880281886,0.664120689,-0.995393161,0.612746166,1.38162847,-1.448502109,2.644901691,-2.552329892,-1.034488168,-0.046983643,0.205502367,0.059332397
0.300578911,0.839568116,0.017156942,1.031605182,-0.817544878,-0.854345183,-1.396768589,0.196634258,-1.444235329,1.605958632,-0.912377062,-0.760476238,0.428924449,-0.07546598,0.150538633
0.769236453,0.717967082,0.230129759,1.462122727,-0.028614621,-0.404095102,-2.967257131,1.371428271,-0.686013615,1.506765921,-1.153586257,-0.416628074,0.148615268,0.049828564,-0.034812384
-0.093536187,1.187433489,-0.192262089,-2.932517412,0.946221303,0.250395274,-1.285316812,-1.032489814,-1.334172101,-2.549528911,-0.12160082,0.421635675,0.087162277,0.250425216,0.026074966
-0.312243125,0.06988853,-0.121472672,-1.924915727,2.37394821,-0.311175751,2.293207249,-2.885547931,-1.017057778,-1.564612837,2.205096173,-0.590603062,0.034765633,-0.680721902,-0.515260194
0.246596944,1.106276143,-0.194461537,0.372538327,0.160945323,0.449001965,-1.458416715,1.623482379,-1.272848649,-0.315538107,0.537324145,-0.0772396,-0.280233919,0.168434327,0.16735723
1.027566147,0.612522447,-0.22802771,1.063548793,-0.618094537,-0.37483624,3.001753467,1.366828465,-0.664910426,0.97582321,-0.520687335,-0.337793895,0.183049335,0.024411274,-0.086034927
0.961822501,0.277532229,-0.019696486,0.082572216,-0.526945654,-0.741895652,2.892061778,1.518993974,-0.60152765,0.037526746,-0.463073891,-0.731087932,0.174043662,-0.137664753,0.039826744
0.383414412,0.700502564,-0.26194732,2.863621759,-2.646557203,-0.553145461,1.400384926,-3.009075825,-1.372975509,2.957141045,-2.093698698,0.108404549,-0.038900289,-0.153950559,-0.374915522
-0.138634095,1.112548416,-0.130569887,0.228647471,-1.007791309,-0.169522534,0.462688944,-1.203013847,-1.317426481,0.292301768,-1.058160837,0.058511516,0.388202241,0.070929621,-0.348384972
1.048322958,0.472730111,-0.09216977,-0.685141769,-0.552731783,-0.95210484,-0.498430626,1.678736907,-0.567895257,-0.263258593,-1.146284976,-0.893245762,0.159556758,0.148491651,-0.113893751
-0.141620067,0.928304243,-0.092757509,-2.626603402,0.016932037,0.531528382,-0.922277644,-0.314059726,-1.323295162,-1.172562886,-0.108864874,0.564673794,-0.055135233,0.680651412,0.37726673
0.45157788,1.464010898,-0.511127832,1.04927941,-0.278097721,-0.114707282,0.221285611,1.873490262,-1.175744353,1.009301458,-0.650989588,0.002534434,0.097189067,1.237603486,-1.029824636
0.078196566,0.798210101,0.046949592,1.658801104,-1.276169214,0.267925012,-0.197461647,-2.305735899,-1.493072942,1.721149778,-0.816381132,-0.090351245,0.393280549,0.005066383,0.096989035
-0.229709915,1.292157365,0.022702987,-2.953528199,-0.337284506,0.402806992,-1.711624591,-2.382215533,-1.479005671,-3.475658561,0.149673398,1.07798883,0.018320365,0.999859072,0.208565284
-0.786383411,0.146870014,-0.303074025,-0.381145511,-0.430779937,0.925720002,-1.61681799,-2.691432662,-1.13964374,-0.79186745,-0.332245019,-0.443015589,-0.159214684,1.106920132,0.150632582
-0.009308558,0.963905485,-0.245386269,-3.551570975,1.669318574,0.323342222,-1.386480028,-2.321514171,-1.485757526,-3.207213643,0.04436866,0.952421767,-0.176596868,0.551686614,-0.301172492
0.708655806,0.435016494,-0.065829371,0.028530203,-0.115477159,-0.017851501,2.42722514,1.71285792,-0.50164011,0.008562338,-0.115222384,-0.090276491,-0.226273216,0.157828158,-0.076658116
-0.02558527,0.980433702,0.130614486,0.028544948,0.005029763,-0.004743685,1.799261631,-0.867126479,-1.431017291,0.016996639,-0.002910673,-0.023634032,0.044339157,0.001862647,0.038327284
-0.123925705,1.30087387,0.251330018,0.571442746,-2.05764688,-0.500347635,2.557110408,2.298499064,-1.264956146,0.719894594,-1.339508962,-0.669809713,-0.044683652,0.434558951,-0.387027776
-0.579429073,2.323729248,-0.249331413,-2.969285583,2.752158435,0.398096642,1.126650626,-0.615524149,-1.385814275,-2.465391845,0.411123275,0.386671627,-0.069910443,0.669926353,0.041309538
-0.112545904,1.083423299,-0.320567649,1.499743305,0.507792166,-0.793436502,-1.642607323,1.512650344,-1.304719126,1.281371649,0.25648881,-0.772912253,-0.602333026,0.148737517,-0.404133144
0.125300649,1.063824946,0.004523303,0.518044219,-0.517138909,-0.703570197,-1.031574714,-1.674347219,-1.533300474,0.531608318,-0.590188549,-0.788388655,0.152062102,0.063647162,-0.180747539
0.075069948,0.898311109,-0.119343373,1.309093619,-0.323500413,-0.061725647,1.911653341,-0.713877941,-1.404795013,1.246432705,-0.287202683,-0.269641824,0.104517434,-0.07188648,-0.028415334
-0.004494886,0.770505272,-0.042674436,1.398942175,-0.343034829,-1.274453195,-0.479050325,1.063775776,-1.427550679,1.342214345,-0.31103577,-1.140288848,-0.090856283,-0.253266898,-0.09893184
0.506114318,1.326344958,0.109516521,-3.514587529,3.382442826,2.202650978,2.014460946,1.340082499,-1.470585523,-3.466767799,3.32363641,3.121800805,0.453125132,0.144618393,0.280722416
0.625936185,0.790779982,0.239724612,0.030725959,0.070212889,-0.047597527,-2.700571159,1.71610594,-0.837013877,0.033894936,0.072044917,-0.02187648,-0.222262925,0.016310265,-0.092266311
0.035921099,0.909172674,-0.106286714,-0.640320605,0.614750357,0.317290666,0.185857335,2.360291775,-1.255149736,-0.636010801,0.435368794,0.34064135,-0.037374933,0.003743306,-0.183169457
0.692396312,1.129110869,-0.394843393,-1.86467312,-1.674005406,1.61200188,3.047586846,1.653697061,-0.787123855,-2.169004082,-1.701120987,1.744460211,-0.42689873,0.674055326,-0.292819035
-0.095936723,0.766202947,-0.096764856,-3.012533291,1.182058634,0.503975928,-0.218119253,-2.872204069,-1.253438948,-2.202821791,1.183924093,1.165338234,0.303584491,-0.068630543,-0.41416155
0.074495285,0.82531368,1.341653719,-1.120398164,0.194180918,1.127862766,-1.742561642,1.818637915,-1.395995441,-1.046067088,0.303564058,1.051525599,0.055807842,0.045071986,0.88768346
-0.080140113,0.998445802,-0.0161098,-0.002284382,0.010548447,0.026515564,-0.975275254,-0.47663073,-1.413350202,-0.017884488,-0.009860637,0.01699089,0.003109324,0.000388925,0.093442141
0.800994087,0.56452261,-0.125453853,-0.217761741,-0.080941011,-0.296571924,1.77166599,1.568874547,-0.689393736,-0.355760497,-0.09435119,-0.320552856,0.108948827,0.103090167,-0.153806404
-0.079021286,2.058726782,0.284573182,-1.937902509,-0.753797548,2.275649687,-2.393708882,0.929034706,-1.477097005,-1.306005461,-0.850934978,0.759993367,0.069090217,0.763590343,0.306756356
0.623397262,0.836682422,0.117389376,0.770145888,0.621214458,0.158022006,-1.851021367,1.880988906,-0.563087774,0.722739057,0.576059793,-0.076856766,0.029204562,0.006845332,-0.18770706
-0.228838425,0.970293408,0.329074897,-3.223283114,2.993509455,0.364928893,1.930975639,-1.175888925,-1.329587952,-2.386501576,1.159483997,0.31992057,0.056826314,0.098723589,0.011973347
0.643432124,1.054548814,-0.215318448,-0.371846361,0.906492996,1.284358812,1.253339053,-0.728236447,-1.24845029,-0.188053045,2.462834257,1.064692033,0.654384121,0.193133113,-0.13717197
-0.152712644,1.05673741,0.544739773,1.267068255,-1.510861211,-0.117819016,-1.859124381,2.254869563,-1.417742,1.259306836,-1.503151864,-0.354357372,-0.098740506,-0.025056986,-0.246654098
0.201859587,0.885783054,-0.191602572,-2.047521555,2.50578822,-0.758268264,-2.698905608,-0.07347486,-1.27199137,-2.373191567,2.328103011,-0.783280061,0.358691853,-0.136327522,0.275123324
0.710961891,0.539951651,-0.058782679,0.691495527,-0.337644679,-0.279662735,1.878728702,1.495354797,-0.691739768,0.787214734,-0.365788231,-0.255894638,0.042090143,0.103061606,-0.101343241
0.823298751,0.634194662,-0.296067367,-0.70057096,-0.98441227,-0.610870629,1.457657385,1.372563898,-0.748378207,-0.527135994,-0.808209636,-0.559296457,0.025555517,-0.165290297,-0.079916467
-0.138985883,0.827166946,-0.247403683,-3.300163126,2.874431928,1.081975103,-2.468205479,-0.354875501,-1.37095834,-2.720515112,3.688470192,-0.162289889,-0.027239532,0.000228018,-0.013192755
0.066239894,1.066421295,0.035373868,-0.070499356,-1.022076649,-0.280281221,2.16036205,-0.183998552,-1.275510905,0.15088794,-0.169287,-0.181889595,0.06152154,0.168729047,0.221104083
-0.06294055,1.040985718,-0.116193827,3.338733775,-1.148314775,0.149078503,0.587011201,-2.822462103,-1.292005526,2.964569015,-1.887053609,0.504762397,0.387421396,0.843320208,-0.359369238
0.119873056,1.095046264,-0.069694334,0.975278504,-0.602618279,-0.246940031,1.301543664,-1.011412274,-1.401323977,0.915260159,-0.461264413,-0.31786326,0.321271116,0.147976437,0.159005528
0.082751845,0.810977618,0.023862118,-2.837535876,1.755110465,0.214865177,2.305328058,0.733662564,-1.36621542,-3.672319327,2.79842502,-0.474458509,0.043639481,0.10112217,0.000322894
0.082564354,1.01909077,-0.142332539,0.413022546,0.21937033,-0.556167903,2.691026187,-0.061880345,-1.278269886,0.345857108,0.170360632,-0.480436531,0.383363088,0.16214536,0.415734781
-0.003574762,1.343245922,-0.192941845,0.057676752,-0.327264073,0.29330558,2.519827778,-0.497798836,-1.278697567,0.29929017,-0.838053023,0.035863538,0.249489841,0.281720578,0.045019663
0.625046481,1.029614685,-0.189631045,0.240936997,-0.479408173,-0.450347867,2.219959844,0.96206133,-1.307583471,0.128665229,-0.128447527,-0.487298602,0.598875688,0.053115189,0.356758792
0.178586812,1.146958513,-0.060599818,0.562572393,1.895460291,-1.055019906,-0.543257365,3.12032663,-1.534811084,0.218248931,1.949591435,-1.247887931,-0.2208789,-0.086141835,-0.150026169
-0.021431582,0.619156644,-0.00865355,-0.499134772,-0.45021752,2.073646677,1.591700335,1.889810307,-1.438740485,-0.94416247,1.48145301,0.815731167,-0.16823662,-0.11391616,-0.175347577
-0.077525811,1.44221124,-0.29213131,-1.833786741,1.43040882,-0.530771653,2.833648079,1.412178204,-1.400106597,-1.523730578,0.150316823,-0.683642302,-0.29847772,0.494429641,0.36188221
0.266495352,0.447591888,-0.466861795,-0.068020979,0.471371175,-1.145739834,1.91404116,0.481915793,-1.049880189,-0.093972551,0.42611979,-1.266859811,-0.142892127,-1.008697078,0.109570305
0.085098495,1.202658125,-0.288451088,0.202953054,-1.221984407,0.243179981,-2.021159207,-0.310852081,-1.219276318,0.033291325,-0.945572755,0.092379841,0.281387209,0.293614789,0.078287822
-0.063631497,0.977623636,0.054252869,1.802552622,-3.294835607,0.069076046,-1.095946422,1.995082147,-1.387499474,0.843631241,-1.287963125,0.211635188,-0.263214725,-0.204306045,-0.118730149
0.088090156,1.181248221,-0.036461303,-1.879036079,-1.948034624,-0.007491664,-1.253057222,-0.265344853,-1.256041898,-1.594930112,-3.998890838,0.610809375,0.251239792,0.558337334,0.428699225
0.774929463,0.43105144,-0.19229397,0.771656278,-0.212085548,-0.051570658,1.822428482,1.48598712,-0.632573802,0.753272192,-0.370232811,-0.152397265,0.2351963,0.007101512,-0.011512145
0.516356253,1.003196823,0.143450621,1.382890017,0.778272418,-1.019676361,1.842957598,0.265996637,-1.446729526,1.122541725,0.250364435,-1.209985286,0.628340866,0.051023472,0.292219743
0.648202798,0.670215664,-0.120890918,1.038983342,-0.204551737,-0.383130161,1.38763973,1.428120002,-0.714041913,0.749816666,0.297644035,-0.326595135,0.061337646,-0.153220128,-0.120309395
-0.062911144,0.685632271,0.054078569,4.127781139,1.616557701,-0.351740498,-0.805294618,2.451852725,-1.436300371,3.495569118,1.72885601,-0.050828734,-0.158778066,-0.058612201,-0.061469717
0.157217062,1.065748251,0.662277994,2.538705792,-1.747270514,0.260789517,0.518655087,-2.785191896,-1.380891073,2.495440341,-2.12931692,0.191036267,0.022420641,-0.120848505,0.554723789
0.243108134,1.808828485,-0.139121704,-2.991345455,2.550632997,0.419274851,-1.623398286,-1.299998571,-1.482108769,-3.154867216,2.605306127,0.258727418,-0.102896096,1.225375896,0.074384657
-0.162582896,0.368905739,0.190428706,-0.365994186,-0.889022723,0.193097781,2.754664397,-2.787334607,-1.082237107,-0.12237757,-0.711883005,0.143989944,0.188861652,-0.44379944,-0.588968243
0.811341789,1.24870257,-0.309554213,-1.040369877,-0.221693153,1.540314154,1.399826811,1.444438859,-0.639706079,-1.750694253,-0.980775334,1.998991196,-0.038572914,0.901121904,-0.232388441
-0.184678582,0.266175016,0.19734019,-2.93588194,4.703467578,0.284131757,2.654612707,-2.796374126,-1.139688245,-2.762023192,-0.080071111,-0.298286529,0.064035571,-0.409383575,-0.534826796
0.10035,-0.071193417,-1.047553038,2.678563371,-3.118838003,1.25512594,1.772720878,-0.234453234,-0.109491573,0.627745274,-2.786951468,-1.301100323,0.253768992,2.460927131,-0.308329917
-0.076141967,0.238929334,0.35228787,1.021488385,0.901998914,-0.918658933,1.680857653,1.855166893,-1.107188407,1.079503444,1.091487109,-1.093288851,-0.139539462,-0.506438769,-0.039473
0.070055548,0.755053845,-0.200759885,0.524492548,-0.27697141,0.174221227,1.30937821,2.160003652,-1.34113084,0.600306243,-1.288475876,0.296349796,-0.093964777,-0.271682182,-0.281317804
0.049300887,0.949319386,1.200768384,2.808975796,-2.648164985,-0.078467113,0.072908398,2.884876252,-1.404101069,2.988973509,-2.755497082,0.199020823,0.013469503,-0.338160545,0.16546925
0.814690872,0.29931937,-0.087451673,1.313562936,1.972109919,-0.763933491,-2.725841858,1.619060939,-0.559128764,1.487209264,2.128133989,-0.843763672,0.069817287,0.079439573,-0.285155049
0.910852002,0.965946349,0.018122214,0.631942375,-1.633866854,-0.261975998,1.218838462,1.585376529,-0.526307805,0.810838309,-1.307051189,-0.335600012,0.068046863,0.465941493,0.038671937
0.719288094,0.557343918,-0.007296864,0.890104806,0.723539806,0.330089846,-3.011018407,1.711029079,-0.521902333,0.754824171,0.406173589,0.260606619,-0.162195071,0.118490522,-0.248670017
0.189859609,1.418689023,-0.338914124,-3.274263605,1.533858334,0.46417761,2.939131641,-1.812192112,-1.501921611,-2.491476187,-0.028756652,0.471192783,-0.084956218,0.62345445,0.218405376
0.324220433,-0.00311623,-0.165286353,0.04979409,0.043482121,-0.002479819,2.783523913,-1.410720293,0.985584896,0.018427204,0.063463178,-0.00122713,0.391980437,-0.009476278,-0.158407401
-0.174523601,1.303809474,0.255250164,-2.776831724,1.337983934,0.508203494,2.918387049,1.704694596,-1.263106932,-2.942307439,2.956051911,0.395387749,-0.539890292,1.307625242,-0.029826108
0.097128379,0.832785659,-0.071711617,1.889673273,0.194757306,-0.257696121,2.999385681,-0.377059973,-1.513952063,1.768928381,-0.859781064,-0.604476238,0.139395589,-0.007338669,-0.105784892
0.736615769,0.704009335,-0.061976697,0.210324395,-0.342669378,-0.408484924,-2.277611394,1.46469028,-0.731821536,0.108107559,-0.561912611,-0.487932268,-0.122653909,-0.013834805,-0.128247481
0.457693453,1.511975946,-0.513246593,2.053334813,-2.318596487,0.886121988,1.213032503,-2.994584323,-1.273985801,1.692141524,-1.690845214,1.579647973,-0.168721977,-0.602148908,0.215945885
-0.196177265,0.489239285,0.344266544,-0.955126306,-1.127840206,-0.54986846,0.152397638,-2.775437673,-1.090841455,-1.218202096,-1.048691804,-0.758518603,0.028107012,-0.366222344,0.199116459
-0.06432398,0.752339461,-0.124451585,1.021149466,-1.247207631,-1.171642085,-0.837184032,2.163726625,-1.318050064,0.683852247,-2.363169297,-1.077850056,-0.22534039,-0.505189873,-0.139860667
0.03457849,0.908719621,0.066208555,-2.277552601,2.072349563,-1.096161038,-1.62055565,-1.366083453,-1.370674509,-2.465249567,1.49834262,-0.786560297,0.358494059,-0.177858753,0.079728483
0.032758868,1.412077874,0.031464719,-0.155315427,-0.442952054,-0.16808281,2.618238743,-0.299126058,-1.227507108,-0.249556715,-1.153315236,-0.244130005,0.271107762,0.330701975,0.28270591
0.140720194,1.329887497,0.302382678,-1.999129412,-1.754894872,2.104862794,2.842606346,-0.589277542,-1.459942239,-1.255929998,-0.900259713,1.985569816,0.080382131,0.212107984,0.309887327
0.081860665,0.771178853,-0.111488478,-2.988290955,-0.404781224,0.631448287,0.145232909,-3.028206525,-1.329872943,-3.464779372,-0.201460694,0.536118637,0.076905972,-0.12719468,-0.149611384
0.578748326,0.51254302,0.355555416,-0.013861501,-0.367523917,-0.053840393,-2.375043876,1.734065136,-0.479517099,-0.136773347,-0.46927532,-0.045742065,-0.108394668,0.088943306,-0.203909848
0.125232429,0.853522864,-0.762244398,1.690269743,-0.864236236,0.340934066,-1.803102144,-1.607010154,-1.465787975,1.814382897,-2.480787913,-0.216154333,-0.451218675,0.098565202,-0.562945263
0.476965062,0.774639948,0.091168535,-0.299616485,-0.073678032,1.390903544,3.057157182,0.458717251,-1.347436769,-0.588723435,1.749785305,1.099649495,0.455753828,0.147735266,0.164034188
0.007658061,1.158173757,-0.069763897,0.66177779,-0.205114782,-0.565131512,-2.891621206,-0.729869084,-1.350021579,0.531122152,0.448821717,-0.217870892,0.1844709,-0.191703251,-0.017310011
-0.469335405,2.188259512,-0.366154279,-3.360176644,2.641171031,0.466509748,2.047409881,-0.565913687,-1.341620986,-1.744437326,0.62326001,0.283058373,-0.143665636,0.754540868,-0.279499066
-0.033523719,0.981040891,-0.033701144,0.889408269,-0.458060639,-0.375469173,1.793179274,-0.26706749,-1.352353411,0.881174323,-0.412009139,-0.160432198,-0.062412093,0.155215131,0.015020886
-0.123938404,0.934663236,-0.22898085,-1.372151647,0.317931757,0.717282415,-1.143051868,2.0730185,-1.372029858,-1.251626235,0.32480069,0.79981402,-0.406618643,0.226417882,-0.216449741
0.837694001,0.652993872,-0.166447546,-0.929641774,0.31197609,-1.118198408,-1.300348365,1.349975789,-0.905614474,0.57304144,1.20472518,-2.918888002,-0.004023087,-0.189247989,0.008993988
-0.27692463,0.350841935,-0.090424096,-2.156173935,0.124257845,-0.440099903,-0.02411959,-2.837078389,-1.170188192,-2.061117486,1.60803,-0.427875512,0.124725185,-0.351027129,-0.282700066
-0.290220937,0.407485249,0.139587315,-1.708219642,1.573945674,-0.655370475,3.09325008,-2.851960257,-1.154190346,-2.108700121,1.13291047,-0.567066731,0.034534444,-0.423823959,-0.311880117
0.016805839,0.910287384,-0.034954032,0.869135874,-1.360328834,-0.673117585,-0.466933675,1.583857476,-1.384935212,1.177446095,-1.817003082,-0.408850018,-0.272724703,0.004240567,-0.041454572
0.660716696,0.955625557,0.395881826,0.454947717,0.60122658,0.729999229,-2.427816015,2.092978855,-1.343025475,0.494651901,0.774480096,0.582342688,-0.148252789,0.008264314,-0.054976936
-0.551825018,2.587582969,0.321269592,0.23320795,-0.483803538,2.138966911,0.072902833,-2.694376095,-1.103254675,1.485410194,-2.117306323,0.54407072,-0.358645009,1.561240642,0.158543565
0.529337873,1.478569414,-0.146647403,0.229045622,-0.169024071,1.004340189,1.300746819,2.660418119,-1.381445178,-0.314297744,-0.78641848,0.865973891,0.499093542,0.374440375,0.508952188
0.007768574,1.067835779,-0.140349509,0.610962944,-0.859086211,1.482312244,2.635653957,-0.764881041,-1.407007596,-0.45856,-1.132685423,1.303862406,-0.043613155,-0.048321333,0.042892468
-0.333774134,0.295795424,1.08591134,0.65499022,-1.062684251,0.587790302,2.876688688,-2.716872869,-1.07695569,0.257533346,-0.109988516,0.224496748,0.151948401,-0.634637149,-0.380263592
0.942349579,0.360468721,-0.21763582,-1.79024572,-0.255275162,0.682697955,1.377500816,1.673022258,-0.527956747,0.585895254,-0.807031612,0.719984658,0.228875419,-0.275256103,0.148782977
0.605620015,1.319342352,-0.022147897,-1.052193622,-0.261441633,0.533432068,1.64885436,-0.339781564,-1.29440471,-1.290320839,-0.271263242,0.836077252,0.618093311,0.419141364,0.169003588
0.022560629,-0.277930509,-1.030290875,0.003876139,0.011841615,0.002598878,0.393233871,0.077666357,0.268965089,-0.002216926,0.002815142,-0.003567809,0.021101832,-0.001450065,-0.028916419
0.063800035,1.669031777,0.04654573,-1.575986727,0.222214744,0.790865903,-1.17542417,1.296075942,-1.362374995,-1.831384464,0.002832279,0.94687114,-0.238455533,0.711100756,0.487234332
0.563303992,1.638908586,0.103281894,0.320772145,0.029379025,-0.591912724,-1.62265939,1.656151215,-1.261503971,0.259189797,-0.008876738,-0.441890771,0.342689447,0.52790463,0.225847677
0.169884607,1.369588235,-0.167824082,-0.054389448,0.231270596,-1.242032688,-1.178865168,0.74610602,-1.393319069,-0.243512972,0.218785455,-1.320733808,0.199142985,0.206419698,0.17290282
0.042486558,1.245694434,0.098274373,1.478962993,-1.097238598,-0.672642967,1.378865926,0.465090027,-1.319895411,0.938048196,-0.958864341,-0.317169239,-0.02055513,-0.011945566,0.381163928
0.898048263,0.265676997,0.33626837,1.082372004,-0.172196071,-0.089028879,-1.821342081,1.713112217,-0.511724464,1.082057108,0.305402206,0.059550379,-0.050260133,-0.295528091,-0.112186626
0.37895096,-0.007241247,0.677012363,-0.048145556,-0.190490737,-1.054482983,-0.376758241,-0.13862398,0.200496123,-0.620191825,-0.259256696,-1.060777861,0.378927332,-0.075495637,0.644376383
0.113463757,0.358256955,-0.246463939,0.416540726,2.414012522,1.133885983,-1.464761621,-0.3021935,-0.010535231,0.35218724,1.892970524,1.145168435,0.387395599,0.29886692,0.373653432
-0.028321502,0.280407975,0.555398003,0.542099975,0.149456053,0.660039096,1.482809652,-2.79487815,-1.078496899,0.32052651,0.153766651,0.123645101,-0.137711143,-0.662933643,-0.32659168
-0.03114084,0.71818256,0.048638212,0.316418199,2.016742571,-0.774109685,2.892386311,2.885112989,-1.515857993,0.164483235,1.911978559,-0.747933804,-0.007444553,0.364549998,-0.177779955
0.076054547,1.080452184,0.153104708,1.689048468,0.719463043,-0.761275714,-0.73473879,2.170112814,-1.429094033,1.845540439,0.222255209,-0.538358802,-0.020937975,-0.279103784,0.092517282
0.079984711,0.789891305,-0.023792047,0.429168463,-0.069504537,-0.257825553,1.5387393,-0.704070469,-1.477062447,0.301991994,0.046783624,-0.268688396,-0.007327868,-0.023812814,0.052946451
0.766058862,0.874770759,-0.187325991,0.701628546,-0.45429136,-0.504450244,1.387081718,1.479501359,-0.708796102,0.756963869,-0.466082788,-0.699294954,-0.057220178,9.16E-05,-0.100210613
0.877067423,0.42332783,-0.144909504,1.797003934,1.93922,-0.888153279,1.819325776,1.623768773,-0.667005571,1.954710955,0.004223478,-0.837539992,-0.093120729,-0.105196462,-0.017651916
0.291685011,0.85773883,-0.065775143,1.2420781,-0.763471641,-0.42913099,3.019645121,-0.13809827,-1.423513763,1.368976084,-1.839083116,-0.175658006,-0.008434921,-0.102329736,0.166855939
-0.242776014,0.225370839,0.081126181,-3.246832238,0.078174088,-0.531561359,0.149554244,-2.685908256,-1.11952359,-2.445547057,0.026115701,-0.334935747,0.253075212,-0.501865199,-0.628585553
0.868214586,0.737904816,-0.149320254,1.608831404,-0.884257439,-0.217958217,-0.571395355,1.385467026,-0.711471536,1.771603144,-0.631312286,-0.146102822,0.082565646,-0.045393327,-0.000814932
0.158916315,1.392566528,0.098514706,0.421460299,-1.529697097,0.109044339,-1.978068157,-0.28147169,-1.227281713,0.026390227,-1.170773912,0.122205174,0.470740322,0.491774086,0.2387002
0.754840276,0.680938587,-0.222752758,1.617807806,-2.482239056,0.312017065,-2.36361011,1.424606431,-0.704689799,1.822939646,-2.389955098,0.189458405,0.263187368,0.264679859,-0.063982047
-0.15078869,1.006754084,-0.203022425,-0.659850857,-0.043719456,-0.158836266,2.928117177,-1.153173632,-1.425684413,-0.782525542,-0.185572964,-0.180589534,-0.053610969,0.048457368,-0.128273039
0.452221056,1.423144118,0.066948484,-2.267723376,0.92633505,1.651873932,-1.943523519,-0.345426385,-1.202426487,-3.439904792,1.457285562,0.07657131,0.333374969,0.353032404,0.488459469
0.168517764,1.693719302,-0.734816786,1.386387396,0.308120471,-0.410369374,1.477723821,0.495888342,-1.038023844,0.351730323,1.782345534,-1.570266277,0.174739384,-0.906371334,-0.018616432
0.256164308,1.116089074,0.117781981,-1.606928852,-0.364439806,0.467938136,1.816810201,1.682073441,-1.221307228,-1.29208062,-0.441214898,0.469861584,-0.039806726,0.304148672,-0.045526452
0.132620817,0.361970547,-0.04695167,-1.692210614,-0.881949798,0.480287856,-2.902862692,-2.790090502,-1.060716349,-0.47432805,-0.451637324,0.285597144,-0.392054481,0.901986935,-0.324899695
0.001665503,1.012975046,-0.005505193,0.532777286,-0.871094207,-0.42243718,2.635661446,-0.395522514,-1.468984058,1.320013848,-1.910111757,-0.68277518,0.097317772,-0.007087772,0.062605561
0.308328228,1.033689459,0.92203765,-1.883817111,-0.308069199,-0.879149332,2.597937964,2.142889185,-1.267096049,-2.951354802,0.819367198,-1.497780737,-0.254297008,-0.009802376,0.039943999
0.592810316,1.046145106,-0.077555408,-0.922182786,-1.551198668,0.309055638,-0.649697484,-0.375045164,-1.301438093,-1.385675514,0.682380595,0.365093885,0.679854192,0.048140582,0.095524679
0.10153246,0.982309794,-0.075502035,-0.753889161,-0.424030792,0.294693087,-1.752352734,1.608492513,-1.501399291,-0.678263267,-0.408007998,0.277039447,0.110235682,0.037168012,-0.143914195
0.647315989,0.419601792,0.005084054,0.458416906,0.53344667,-0.11011727,2.705462915,1.724291454,-0.440131978,0.457914169,0.223755516,-0.130543357,-0.20482698,0.021958487,-0.151962914
0.177786378,1.174159856,0.94275867,-0.970162018,-0.28512457,1.356063851,2.324113583,1.978472985,-1.252960767,-1.202592805,0.071092495,1.629773633,-0.111862765,0.666173051,0.782091956
0.184484692,1.355909836,-0.043997791,-0.92567879,0.606378899,1.13164391,0.743972031,-0.347572466,-1.226994926,-0.822217181,-0.253804679,0.812313205,0.290624984,-0.239817929,0.414282587
0.777786045,0.660708195,-0.189184713,0.626654268,-0.184241284,-0.167685493,-2.406708783,1.36483345,-0.769536963,0.517905223,0.017967732,-0.103124311,0.010566912,0.002140116,-0.072607527
0.191101963,1.515174485,0.033113007,0.922542238,-2.31273213,-0.466286633,-0.054138253,1.775054913,-1.200974682,1.255285597,-0.466461226,-0.817410578,-0.04368057,0.870926746,-0.167223236
-0.022039727,0.867891467,0.009815115,3.043216967,-2.305504506,0.428747597,0.314959111,-2.856510173,-1.306740001,2.684350166,-2.38656616,-0.052770773,0.159706667,-0.117067774,-0.356426474
-0.067805091,0.343107015,-0.057788233,-3.303420799,2.149205379,-0.812323969,0.331512172,-2.837309828,-1.154648104,-2.453628989,2.440050059,-0.873280684,0.00260295,-0.364065933,-0.519743709
0.407002728,0.74213521,0.780572848,-3.388184629,2.628690717,0.090232139,2.916055552,-2.831706171,-1.406011603,-3.311660679,2.571702858,0.776924265,-0.172558487,0.408582909,-0.192307676
0.107918608,0.837130162,0.507767906,2.880521241,-3.042659287,0.199011889,-2.904807011,-2.798387671,-1.380311584,2.84480405,-2.987149526,0.277752671,0.260540022,-0.258532333,0.028874963
-0.80483926,0.867746802,-0.367222769,1.07698287,-0.54091525,-1.369536451,1.325329818,1.669691152,-1.501531912,0.909693577,-0.392954054,-1.409947644,-0.481176346,-0.029887642,-0.28313317
0.040301128,0.862265403,-0.114723134,1.611785515,-1.708975883,-0.083775673,0.164293076,-0.090581509,-1.484215007,2.139607975,-2.222476134,0.032211822,0.262532961,-0.143641226,-0.007910238
0.790612065,0.561732964,-0.172095053,1.675855288,-0.081311823,-0.140120596,1.327216077,1.403031994,-0.700406389,1.818155267,-0.421673035,-0.128907927,0.057503724,-0.034146935,-0.087052199
0.076022786,1.535539814,-0.081846999,-0.518249531,-2.382712543,-0.092489621,3.093953768,2.377460401,-1.229885105,-0.673473993,-1.425858154,-0.141122548,-0.166320785,0.534652676,-0.258839422
0.595613222,1.020098781,-0.069649312,0.102423766,-0.154068704,0.154645368,-2.6286794,0.008180002,-1.280624926,0.079775347,-0.256007789,0.123560476,0.587511888,0.011438244,0.11235848
-0.179765819,0.941267029,-0.172184633,-0.44332299,1.222459328,0.765514006,-0.036098335,2.228760492,-1.387479044,-0.969556707,0.593815771,0.158738736,-0.444925061,-0.0286,-0.293710456
0.349648763,0.869727069,0.275718189,1.614122133,-0.649185558,-0.381633736,-1.990710872,0.920492247,-1.393979177,1.533243231,0.016611254,-0.270173684,0.561748745,0.142282415,0.237870566
0.170567632,1.028975122,0.05210151,1.080104884,-0.224923847,-0.603988709,1.810744577,2.326558107,-1.435783842,0.701157353,0.498730571,-0.964070214,0.027848706,-0.114256499,-0.082313708
-0.511910755,0.957221835,0.656211095,-0.923379309,-0.745011054,0.302061209,3.090476961,-0.468910294,-1.205910154,-1.192811221,-1.066485137,0.702912644,0.940796282,0.623676017,0.64739429
0.424811713,1.107354189,-0.076449435,0.664342511,-0.695735676,0.065248741,3.041389874,2.680249697,-1.401429903,0.449805504,-0.084528872,0.040708402,0.171651153,-0.065646353,-0.099146526
0.635793576,0.504252003,0.093548655,-0.247439833,-4.469817905,1.226919702,-0.624898375,1.747127777,-0.571831592,-0.596662282,-3.244312472,1.356948011,-0.178693537,0.072926296,0.000214457
-0.136658935,0.259034242,-0.161561505,-2.562024954,2.141771199,-0.471790773,-0.335268282,-2.807712722,-1.120673176,-2.074690867,2.382618424,-0.587459301,0.10587278,-0.352244771,-0.79753064
-0.132063107,1.108559684,0.261658031,-0.921585664,0.016890776,-0.239163399,-1.620627798,2.351374121,-1.410019176,-2.008933025,0.537902396,0.048595693,-0.143349436,-0.07817,0.164146149
0.008665458,0.952813988,1.441275241,0.817249301,-0.808438086,0.188346592,-3.08828899,-1.145946054,-1.412190118,0.861038631,-0.640325426,0.110688295,0.061344202,0.001235493,0.024572752
0.541374094,1.394698677,0.046296138,-1.492674221,-1.204111881,0.613296153,-2.863630478,-0.160910959,-1.298275192,-0.940564157,-0.041503797,0.151640761,0.608005378,0.500059905,0.201189912
-0.040411208,1.017982842,-0.024017945,3.32391157,-0.29257002,-0.55286215,-1.730635107,-1.378649562,-1.372029124,3.246705959,0.069090211,-0.482231379,0.145812359,-0.024122836,-0.320757166
-0.297210102,0.689727068,-0.216322714,-2.752788181,2.303694966,-0.368712533,1.246714013,-2.959028937,-1.351596221,-3.160451196,1.390373861,0.323419597,-0.266245485,-0.127571497,-0.005372731
-0.360041254,1.037404892,-0.270381774,0.522617208,-0.007994841,-1.082070001,-2.432552706,2.499731451,-1.444305621,0.630934338,-0.352067619,-1.039623234,-0.333961961,-0.072421905,-0.471328595
0.217390544,0.737288457,-0.162680436,-1.206802199,0.304731668,0.838589005,1.801480149,1.318260484,-1.135742511,-0.7968877,-0.689461781,-0.010665794,-0.087895069,0.507143531,-0.33382687
0.179386086,0.788529387,0.249463942,-0.967795835,1.835742604,2.033796427,-2.11132358,0.659944598,-1.485644896,-1.348566118,2.403665119,0.082460083,-0.007819649,0.673291706,0.244567819
0.895096304,1.118288498,0.360152998,0.935343509,-0.345926552,0.180237565,2.501566951,1.32562742,-0.900499895,1.116092585,-0.43681338,-0.354610218,0.207244404,0.135680141,0.044292894
0.869864601,0.881717303,0.224234656,-0.362952974,0.506426175,0.315607353,2.925381074,-1.067743239,-0.340906521,-0.002262116,-1.779420658,1.123126575,0.658726639,0.960550382,0.22482053
0.28790065,1.113564641,0.548768911,-1.25565755,0.873897345,1.32375985,3.063472479,-2.227829287,-1.454160325,-0.374145607,-0.542672728,2.543919921,0.40304442,0.409170087,0.362765488
-0.080238177,1.155051076,-0.257001758,0.073357604,0.893220134,-1.141693332,-0.944064303,0.180689134,-1.480578546,-0.69559818,0.943148734,-1.516219659,-0.398324187,0.098062278,-0.129358818
0.154888101,0.716021057,0.269959604,-1.343876153,-0.457554982,0.04625516,0.141015637,-1.854146256,-1.144775574,-2.95904181,0.489024243,-0.101121343,0.331890643,0.222734905,-0.048923053
-0.061715762,1.335270002,0.594722065,-1.792540681,2.083792843,0.966768879,-1.547422505,0.188422543,-1.521717196,-2.485346648,2.335108155,0.796625244,-0.286151112,0.106224494,-0.149178787
0.410686159,1.35597627,0.202084511,-1.003662473,-0.020223087,-0.331565041,-0.870995647,-0.909946756,-0.408987749,-0.30059241,0.930143701,0.057771869,-0.240791987,-0.43153669,-0.015068099
0.389482755,1.425059702,0.180607812,0.615473319,0.750312629,0.856417009,2.914061356,1.232269146,-0.882667776,0.211585782,0.333015491,1.394392846,0.171921901,-0.070237976,0.021960366
0.096360343,0.067954689,-0.448462178,0.286156666,0.075367395,-0.771270215,2.461330744,2.04658462,-0.55415516,0.006008063,0.169640824,-0.500475835,-0.24887046,-0.493387569,-0.09550263
0.08525931,0.132626537,-0.457551809,0.68123779,-2.10567666,0.278881565,0.494064219,2.54235464,-1.277273537,-0.838048594,-0.122484725,-0.145978374,-0.237109817,-0.221796157,-0.045876637
-0.091183867,0.680076437,0.50415196,0.836979739,-2.312974248,0.177551929,2.923954136,-1.663195114,-0.736046181,-0.223817653,-2.312948141,0.54477167,0.306000117,-0.049490497,0.407838586
-0.552048,0.228254657,-0.140871069,-0.768868895,2.527805058,-0.1981794,1.909115794,-2.930380932,-0.601046963,-1.179057421,2.398981344,-0.676721956,-0.615377176,0.245550893,-0.405354613
0.68199652,0.629635234,-0.227035291,-2.39557317,1.949711595,0.257787447,1.755927861,-0.488946975,-0.730960251,-1.969304467,0.925333872,0.727695037,0.045094711,-0.34747309,-0.056477231
-0.148835539,0.701645125,-0.105922054,-0.65097036,1.035104743,-0.78216493,2.323291378,-2.533008103,-1.130193048,-0.894682886,1.219923766,-0.995505554,-0.076847426,-0.927856159,0.007663495
0.252288429,0.740810833,-0.153972174,1.652829096,-2.472557601,0.124040948,-1.766242194,2.112377739,-1.190766095,1.347529929,-1.77226549,0.787097803,0.15207162,0.464457787,-0.176493348
0.004772325,0.710826297,0.359807451,1.188523478,0.454372026,0.024405732,1.419374375,-0.572114362,-1.287443185,-0.194357737,-0.765848557,-0.40873775,0.146980028,-0.596696862,-0.091225007
0.044913226,1.740479785,-0.109079589,-0.309807144,-2.795293213,0.507868921,0.732004711,-0.674918427,-1.308787602,-0.295261778,-2.327143748,-0.054950705,-0.268726937,-0.54670071,-0.194171333
0.265624095,0.587566586,0.196450022,-0.8016021,1.734346482,-0.176780158,-2.810866673,1.745702388,-1.133319155,0.699493575,2.031299981,-1.280916906,0.292545019,-0.296325629,-0.008526976
0.239256266,-0.07833899,-0.031128025,-1.151140185,1.364233061,1.345086675,-0.885054433,-2.770273394,0.34895723,-1.786408852,1.999966794,-0.202112264,0.022126274,-0.627850623,0.159232975
-0.208678971,0.180313359,-0.228148354,0.375637792,1.201210493,0.22563346,-1.7192455,1.974980838,-1.317858422,0.6878989,2.502321602,-0.146710918,0.04040175,-0.195859858,0.050600374
-0.264379627,1.500080609,-0.784959354,0.041481207,0.989942231,-0.49120031,2.447885501,1.175955833,-1.505737427,0.742938864,1.419012044,-0.961372691,0.384474851,0.219142323,-0.233259943
0.147215999,0.830721384,0.746097897,-0.290329315,0.925236842,1.28099138,0.25646106,-1.726334375,-1.054059566,-0.66834951,2.141444317,2.120756213,-0.102003265,-0.130242557,0.269795381
0.275520398,0.346965035,0.70166461,-1.00091968,2.203746107,-0.062518034,-0.372854193,-2.248387194,-0.932763913,-1.048416375,1.207859447,-0.475811444,0.055074001,-0.500810012,-0.001566474
0.319605975,0.94881707,0.13013315,0.632717684,-1.993425001,-0.316239629,0.841398497,3.120481507,-1.444343024,0.805181046,-2.668604944,-0.889634813,-0.510582596,-0.287563426,0.302193895
0.213774995,1.430215068,-0.171481872,-0.38507545,0.310106808,0.004576734,3.00955461,-0.798738029,-1.203623557,0.947801765,-0.17474413,-0.12620966,0.061346225,0.793996486,0.494707819
-0.148717235,0.827182772,0.279938793,1.834844226,0.616532521,0.866433838,2.019135768,0.401149082,-1.349310469,0.546751552,1.123113103,-0.16014949,-0.094060907,0.686237233,0.119618136
0.125914285,0.433082907,0.002568427,0.980663638,1.858360388,-1.007020877,-3.130815296,2.797494787,-1.391718712,0.499225313,0.373433091,-1.906345705,-0.178669928,0.278237127,-0.299980642
0.212960328,0.55309693,0.150921799,1.327880809,1.526428208,0.749676288,-2.692661258,-2.352855722,-1.290746055,1.297178044,-0.033182805,0.68482489,0.274088921,-0.039372518,0.533501429
-0.382057965,0.716486547,-0.306339681,-0.659761369,0.501587155,-0.18844957,0.843805944,-2.390061707,-1.39066866,-0.509578481,1.658866818,-0.134719201,-0.302437656,-0.102714296,0.0842745
0.118368411,0.32769352,-0.207760127,-0.303765143,0.135419184,-1.022107053,0.749906724,-0.681782173,-1.27786622,2.059254033,-1.010878272,-0.566849071,-0.610014342,-0.106686701,0.057678446
0.522734143,0.310243698,0.05042603,-3.212750879,1.298089201,0.841158414,1.668100033,-1.818053789,-0.515299607,-2.99787347,1.906607176,0.196124753,0.305313353,0.279964063,-0.355793269
0.142184495,0.361935736,-0.075388781,-0.840734522,2.71380595,-0.323072005,-2.331507421,-0.686868482,-1.047752097,-0.488805714,3.147113532,-0.187807776,-0.610142722,0.284325785,-0.627923354
-0.072891825,-0.108095966,0.045123636,2.973575322,-0.895574994,-0.164319649,2.115106894,2.843111491,-0.965828999,2.787048294,-0.830575806,-0.376279144,-0.031856233,-0.652770142,-0.194033888
0.779958307,0.925922854,-0.205610144,1.644781018,0.300274902,-1.079474364,-1.685734855,1.815034983,-1.437253873,3.74407995,-1.090186916,-0.119485728,0.170600198,-0.299409379,-0.02827802
-0.081022271,-0.085566999,0.332309848,-0.22180223,0.39874317,0.453193368,-0.874420909,0.908591061,-0.703129173,-1.257585961,1.137556435,0.252962568,-0.233768235,0.713801417,0.527050749
-0.006370834,0.927479556,0.026936712,0.418573305,-1.019505261,-1.057132316,-1.558503129,-2.892421072,-0.584607804,0.995946957,-2.144616646,-0.17683594,-0.012729901,0.374814826,-0.108256169
0.724452299,1.88938036,0.259950621,-1.077838452,1.392711127,1.962319099,-0.521802376,0.240556488,-1.501199558,-0.400473192,1.323772458,1.823259201,0.128086313,0.466391972,0.632219115
0.157062569,0.480381593,0.395169015,1.625292874,-2.199973674,-0.197108765,-2.216187634,-2.146299217,-0.682991699,1.978556553,-0.155112774,1.370726962,-0.255066497,-0.551901179,0.516130375
-0.114919936,1.101404811,-0.608487263,-2.73158494,0.548468511,-0.271312568,-0.584534986,0.278802565,-1.303787959,-1.625509571,-1.60743345,0.559021905,-0.265535295,-0.377961666,-0.505241203
0.335588301,-0.027563986,-0.182829791,-1.009854372,-0.104692405,-0.781322186,-1.154688457,-1.61459646,-0.712026113,-0.076926099,-0.825267643,-0.36030517,-0.03399572,-0.26476158,-0.415826278
-0.031439512,0.048887705,-0.420216064,2.357617331,-0.349948009,0.352835214,1.670849602,-1.962584824,-0.642489986,2.756243157,-0.951952332,-0.610507995,-0.553402821,-0.622276084,-0.367433775
0.430033626,1.41377339,-0.497862534,-1.805725929,1.387772971,-0.453285486,1.725265897,0.68867443,-1.342133268,-0.843065014,0.550587868,0.061584471,0.126424754,-0.152909416,0.188938865
0.253471877,1.588391939,0.389799264,0.540474429,-1.501257539,0.436624817,-1.160842819,-1.351668428,-1.354922858,0.158202498,0.430132932,1.245944812,0.046759039,-0.248968146,0.287250756
-0.016666662,1.370220278,0.313966189,0.516402084,-0.718799674,0.081018575,2.683756223,-2.218287239,-1.408481979,0.24831919,-0.29824786,0.510676687,0.321880224,0.071254877,0.146986508
-1.18153375,2.184519633,-0.290650101,-2.9544475,0.313291299,0.357769825,3.14102403,-3.116799035,-1.476426167,-2.818375208,1.460755695,0.285123768,-0.336658804,-0.41348026,-0.037599938
-0.183279125,0.340783218,0.010441025,0.304745308,-1.055444862,0.210204584,1.725417215,0.781422997,-1.219929161,-0.196541679,-1.065970163,0.198828046,-0.367705864,0.176796644,-0.326202013
-0.124194117,0.730522166,-0.129633174,-0.900916189,0.873267257,-0.165921098,2.510724813,-1.415303189,-1.128642014,-0.918900841,1.254065096,-0.398151113,0.195490217,0.710222858,0.05003212
-0.60450617,0.833684755,0.180200834,0.195171457,-0.066027069,-0.575993048,-2.215161549,0.629164953,-1.556624454,-0.140085684,-0.603332294,-0.551731546,-0.322231833,-1.166174143,-0.642221638
-0.030945415,1.666515923,0.43820115,0.155050209,0.607658437,-0.310151018,0.760072031,-1.264715814,-1.237019965,1.177773031,0.188949257,-0.023953906,-0.307653001,0.383884197,-0.206698553
0.594286071,1.266358235,0.332308298,4.180758771,-0.404135676,-0.422502143,0.916593066,0.350135793,-0.483955194,2.51057949,-1.190156177,-0.041894942,-0.022093538,0.16611018,0.438988174
0.424918272,0.576020793,-0.507397734,1.122844295,0.868516918,-0.437041303,2.190043086,2.768338456,-0.650922065,1.343594873,0.277239455,-0.07068666,0.720994903,-0.665405068,0.288298939
-0.402040213,0.546305189,-0.144585919,0.105069546,-0.742737916,0.068438335,0.449235257,-1.021789342,-1.242815731,-0.7317626,-0.479261979,-0.306730445,-0.291102038,0.161785034,0.008565761
-0.423559314,2.071138679,0.436383809,-0.617900334,1.617098151,0.231295215,-0.172996359,-2.033740691,-1.545389638,-0.993994077,1.434583944,-0.110118339,-0.3380788,-0.858897838,-0.29298471
-0.625246143,0.954262028,0.282418426,0.394709322,-2.079893913,1.143479911,-0.359224271,-0.60423839,-1.339008419,0.742287855,-1.824312598,0.519698439,0.514913479,0.164597752,0.469144728
0.272735682,0.598802464,-1.005218748,0.666726082,1.373456035,-1.324760782,-0.073096369,2.377900592,-1.11059751,0.831724766,0.925990827,-0.971086842,-0.15331987,-0.772517114,-0.632398915
0.988476523,1.389416616,-0.28471142,0.006124115,-1.207343859,0.859424822,-1.498997711,-1.99983543,-0.760520897,1.188167333,-2.009931863,0.840319934,0.872099819,0.514085303,0.146947508
0.814762205,0.666646158,0.211169922,1.428926772,-1.340127314,0.41264603,1.81522986,1.67467086,-0.676040213,1.447865882,-0.878490911,0.352776886,-0.359562688,-0.07460853,0.341267723
0.459588531,0.323416883,-0.187534783,2.332674577,0.221731283,0.279774664,1.327535534,-2.062586075,-0.814662851,0.732125446,-0.482008491,0.084733845,0.578878327,-0.171802313,-0.125666497
0.055194789,0.911924555,-0.039850493,-2.342168986,-0.254280147,-0.425077044,-1.201896606,-2.27154968,-1.483617126,-2.332601512,0.695179396,-0.586548068,0.210216261,0.447015813,-0.036446733
-0.168848108,1.428754138,0.394943742,0.338974088,-1.95682751,-0.492387538,1.346497908,-0.739519816,-1.340457035,0.317049552,-1.898623473,-0.269265718,-0.168803965,0.705083103,-0.130053743
-0.136745129,1.078241365,0.068502215,1.291672257,0.320397841,-0.537739669,2.081553106,-0.264105972,-1.371798692,2.896548397,-1.093111604,0.218033501,-0.240691288,-0.297790457,0.350553905
-0.167717414,0.710125027,0.185345088,-0.693536889,0.462587921,-0.21731273,-1.456157404,0.341819472,-1.43194723,-0.357519791,0.372164619,-0.34698928,0.306018144,-0.120433892,-0.115056842
0.293637331,0.669595921,-0.629990733,0.489188948,0.801809184,-1.627404619,3.068979214,0.070715195,-0.976447206,1.765423901,-0.114748386,-0.759611462,0.00978094,-0.648545796,-0.039355706
-0.149581042,0.235594489,-0.342512639,1.975132657,0.67882048,-0.692432121,-1.022030866,-2.786880858,-1.172205948,2.242306344,1.962537131,-1.07259004,-0.161815898,-0.218934933,-0.351903095
-0.417854295,1.45652996,-0.330678372,-2.480793471,-1.338115845,-0.770466046,-0.832648179,2.456001022,-1.368855587,-1.893909831,-1.176675279,-0.505967122,-0.288099346,0.003738616,-0.181923744
-0.111176607,1.042676172,0.672805747,-1.374723116,0.19571455,0.002650093,0.360555938,-2.985123497,-1.115386876,-0.430522622,0.350450064,-0.669145071,0.298539215,-0.610327817,0.054646055
-0.05336621,1.02392217,-0.239519441,-0.365924062,-0.138631594,-1.031381699,-1.897452104,-0.773908739,-1.233838392,0.023409852,0.011060046,-0.800835364,-0.40007059,-0.050037624,0.175436887
0.600919713,0.382509314,0.412035667,0.371660868,-1.490462928,-0.004794092,-1.787927346,-1.990106869,-0.547550346,-0.120421126,-0.577391106,0.588719302,0.362816271,-0.187987374,-0.346173955
-0.356478945,0.617744159,0.453172959,0.087041319,-0.134820928,0.728854552,-2.163531634,-2.939082926,-0.946317024,-0.221524049,-1.330570888,0.253504041,-0.238669075,-0.154331583,-0.05099193
0.694572012,1.114663031,0.40212435,0.263983477,-1.097100255,0.358378772,1.87802623,-1.21625614,-1.361259665,-0.425818384,-0.641970164,-0.401162631,0.077009046,0.129774504,-0.169831605
-0.064236564,-0.019638128,0.069124564,-0.012205382,0.945862024,0.778212384,-2.293573409,-2.495045439,-0.764008434,-0.134017388,1.878232323,0.020097226,-0.238891886,0.235613923,0.2878999
-0.264560798,0.822778591,0.387890384,-0.717960281,-1.963087651,-0.534638825,2.796612296,-2.204388013,-1.325879568,1.109894308,-1.572398932,-0.156010555,-0.0891643,0.181105305,0.239381794
0.487915133,1.405837514,0.174061263,2.516161222,-0.451225987,-0.122687378,-3.069819105,2.93745322,-1.337935087,2.495419101,-1.260700204,-0.587923175,-0.142557515,0.194677331,0.130259423
-0.181585078,1.257723856,-0.405701598,0.209985242,-1.188454448,-0.284594659,2.386580339,0.670835257,-1.508346007,0.185485849,-1.826707806,-0.163798849,0.01279473,-0.002951892,-0.185797008
-0.05991226,-0.130201589,0.139434811,-0.275944716,-0.328836667,-0.605208455,-0.216619417,0.486339058,-1.192605554,0.093207439,0.313758193,-0.896857877,-0.039324853,-0.593383205,-0.184592682
0.137095104,1.310962995,-0.356761552,-1.078026763,1.181987842,0.049733928,-2.637993344,-1.549146332,-0.98060201,-1.043582362,-0.123822247,-0.34382323,0.270045021,-0.388142672,0.167294457
-0.24150019,0.68197429,0.639330036,0.617181537,-1.705438059,0.145701589,1.898502778,-0.541763095,-0.990890562,0.416403584,-0.419688083,-0.111779942,-0.313589749,0.084556513,0.099682601
0.355786909,0.112329691,0.483137266,0.33011345,-0.367387138,0.925060412,-2.569447667,2.048755671,-1.255241608,0.388721163,-0.894086222,1.579556886,0.308849711,-0.761161331,0.264290387
-0.204052616,1.224682235,0.663806012,0.464823451,-2.096260052,1.319497873,-1.30957902,1.107141838,-1.485078053,0.751524786,-0.792432602,1.039938504,0.196156218,-0.162488354,-0.132583578
0.569843252,0.274361417,0.085367553,-1.506243522,-0.468327054,1.525788163,0.436016449,-1.089277078,-0.575393159,-1.769573315,1.065525514,2.139136763,-0.069316705,0.214042728,0.125141722
0.368441834,0.293763095,-0.292926049,-1.374164698,2.244928857,0.865975978,0.326530891,0.729542584,-0.474614813,-0.73567744,3.397107824,0.016756762,-0.134396309,0.193206037,-0.243867344
-0.359464798,1.129004629,0.388926825,-0.922317044,1.435161112,0.916774975,0.161776279,-1.317064441,-1.256069398,-0.658007207,0.097239631,0.743419223,-0.610280165,0.318976563,-0.084580138
-0.226657738,0.894718198,0.345337666,-2.18743069,-1.423219151,-0.035825459,2.53542889,-2.92263295,-1.110691241,-3.049862095,1.369023313,0.544659773,0.294699141,0.141724528,0.338659203
1.014992858,0.932126782,-0.191724719,0.246565482,2.226648639,0.08602604,3.023549956,-0.435148021,-1.049962791,0.664757599,1.392898065,-0.411971087,0.181847136,-0.51728431,-0.007132858
0.801664482,0.901316314,0.132089253,-1.689542787,-0.182624451,-0.074715071,-1.19201633,2.810216951,-0.785456295,-0.151459796,2.095644446,-0.172367698,-0.08464299,-0.121426654,0.329904205
0.782301393,0.374723139,-0.182580256,2.763569474,-1.549533887,-0.854858555,-1.208214637,1.302745144,-0.345088602,3.965864664,-0.46733384,-0.768684515,-0.083268499,-0.633387915,0.170198744
0.008786567,1.043456878,0.270336401,1.847438886,0.55297056,0.341281651,0.300705258,-1.326665242,-1.49304675,3.093874486,1.501319451,0.281610894,0.007717617,-0.327379246,0.255307215
0.574218053,0.308956944,0.521818159,-1.845917384,-0.018620689,0.286505896,-0.856917419,-0.770495531,-0.988118142,-1.847971331,0.105232316,0.114081087,0.283153136,-0.707607817,-0.189411591
0.635405308,1.392700798,-0.651325893,2.948204109,-1.181344069,-0.643404564,-1.012651613,-1.462864273,-1.093870282,2.697069139,-1.70287249,0.089236156,0.414990534,-0.38080586,-0.357865125
0.243849993,0.543991241,0.098105213,-1.635753213,1.24654251,1.112381734,-2.849873017,1.830905893,-1.463169041,-0.372633591,1.024413944,0.715873025,-0.328196753,-0.541254784,0.508960513
-0.316390699,0.516786997,0.180944381,0.457627945,0.530011281,-0.981732332,-0.704346598,-2.90517667,-1.123835101,1.450827482,-0.501170041,-1.212899277,-0.157922554,-0.557240443,-0.15481648
0.33760757,0.371461961,0.234096102,1.713785319,1.128604006,0.74455428,-2.382985241,1.489952522,-0.842924266,0.97592412,-0.10494925,0.642153282,0.310795198,-0.488780992,0.845831907
0.860362765,0.424527405,0.62883246,0.578037645,1.623180317,-0.553541817,1.329439765,-1.884579497,-0.824490652,0.290187428,0.794844242,-1.005236601,0.33552069,0.197115992,0.106984434
0.085450783,0.006836021,-0.275286349,0.046429298,0.808956637,-1.240140002,2.074350053,1.476722144,-1.076372069,-0.35156449,-1.291007274,-0.925413138,0.057432594,-0.268589282,-0.578717193
-0.25904878,2.578209373,0.260938498,-3.273785223,1.432630406,-1.291156223,0.636154615,-2.021583289,-1.54983912,-3.838482277,0.268678923,0.775091839,-0.322464995,1.036234125,0.030572558
0.338923007,0.445646744,-0.387159381,0.319498174,1.503470663,-1.721489067,2.313879629,-0.298345218,-0.906344298,0.743476742,-0.430337992,-2.103590574,0.268347229,-0.353050616,-0.309059315
0.749774813,0.75636115,-0.633498301,0.21133369,-0.383289707,-0.253426848,2.146160872,-1.758157692,-1.062667149,0.931902308,0.863741688,-1.463520406,0.306990553,-0.065661752,-0.412617999
0.173712655,0.871838969,0.452029834,0.848594891,-1.849002399,-0.132836642,0.367666622,-0.448158173,-0.5996107,1.545489145,-1.029036119,-0.212390102,0.173139798,0.22941969,0.826703003
0.006208914,1.028506085,-0.128575969,1.723790635,1.830627532,0.305777796,-1.271285161,2.037319835,-1.164333637,1.950338943,0.803108121,0.123979864,0.338690035,-0.463975386,0.40228841
0.14359829,0.103668755,-0.027756182,2.552159865,-1.818568177,-0.713694272,-0.184073557,-1.273901052,-0.521188942,1.567754087,1.42068208,-1.257709076,0.13833492,-0.173661758,0.471665163
0.170601465,1.488898476,0.553033149,1.218679791,1.624685043,-0.952607121,1.113342635,-1.095140122,-1.528302255,2.527712072,-0.376692567,-0.655153821,0.022334613,0.134987588,-0.29233764
0.171943106,0.18051865,0.764855388,0.636204909,-0.28344896,0.120614568,2.898210299,0.292936644,-0.904726581,-0.027189555,-0.160521822,0.275862373,0.291150227,0.78853197,0.403588743
0.321862926,1.200121358,-0.254627298,0.33978086,0.927597123,-0.300099539,-1.766686989,0.615838549,-1.253127609,-0.564106949,0.702475993,0.707248451,-0.143740747,-0.45214725,-0.215794748
-0.224566014,0.756601513,0.075060326,0.355618993,1.320130969,1.039784029,3.100425812,-0.98430536,-1.548155767,0.111363658,1.054751804,0.428915843,-0.204201724,-0.37293675,-0.076574394
0.486093631,0.713854162,0.333387261,0.417628663,-1.811069983,-0.51760875,-0.214963371,-1.320881379,-0.831054303,0.791883958,-1.170701918,-0.634127132,0.529489557,-1.039039368,-0.078533087
0.573442779,1.004389153,0.302067818,1.52508857,-2.148905488,-0.915698247,2.513635615,-1.710236441,-1.15081017,0.551588375,-0.429696264,-0.291415372,0.459115441,-0.285607015,0.54210365
0.213276934,1.512493126,0.011174126,1.379801503,-1.572127321,0.045573875,2.5172863,2.892622968,-1.563564733,1.214900794,0.17875573,0.412463267,0.314941332,0.579078291,0.651350452
-0.261149112,0.972995501,-0.248728946,-0.426711397,0.655402892,-0.125947443,1.897511738,1.672671445,-1.365979272,0.083476835,-1.368903596,-0.373730912,0.374694251,0.356626743,-0.384083336
0.275563726,0.814930063,0.282754057,1.969179586,-0.326164509,0.241525654,-1.415594596,-1.998431979,-1.445971784,1.764548755,0.355061272,0.719540258,0.991334956,0.217207255,0.0719831
0.41840257,1.487578916,-0.058740011,-0.735097963,0.969015612,-0.18810515,-1.449931652,2.447998134,-1.392871293,-0.194957035,0.208965798,-0.136525312,0.020040519,0.086753364,-0.179072851
0.732705938,1.612806679,-0.30025924,2.235548171,-0.172311917,-0.888842387,-0.334864886,0.265698857,-1.253776813,1.666878612,-0.432253497,-0.935699503,0.132006586,-0.356750413,-0.121649774
0.081606359,0.958344699,-0.114815842,1.571335955,-0.41235733,-1.12707208,-0.943585879,2.908732076,-1.41678342,1.967856876,0.593331988,-0.865017117,0.049059824,0.216340858,0.195430671
-0.102697079,0.711761716,0.194590141,0.008241741,-1.441633913,-0.332272785,1.319968887,0.242825645,-1.149463837,0.772352684,-2.641323599,0.270612437,-0.094939781,-0.504290064,0.399487182
0.09913138,0.756007783,-0.865427441,0.862385648,-0.832088764,0.260410563,-3.050075396,2.437926239,-1.003613247,0.241913426,1.037323486,1.058271168,-0.516456954,0.021782151,0.101240338
0.289074569,1.027214437,-0.073463351,0.470193041,-0.155916655,-0.337594672,-0.364074873,0.600000999,-1.112886976,0.682277439,1.563576217,-0.817621761,-0.30398105,0.10512888,-0.112440296
-0.207128034,0.267282466,-0.384273267,-1.008525469,1.699293722,-0.812430224,-0.745141201,-0.561710298,-0.932552637,-1.621127557,-0.259280768,-0.322361265,-0.203861777,0.212840821,-0.170502154
0.415936072,1.471700966,0.046477314,-0.718642257,0.788777733,-0.040828692,1.200743641,-2.559308256,-1.232128844,0.119123143,0.513978211,0.056438318,0.118690043,-0.228359478,-0.075129003
0.099772438,1.765832847,0.71581025,-0.25298194,0.500844212,0.027251764,1.6149691,-2.181736311,-1.221027205,-0.830696027,-0.469650881,1.06336306,0.412440613,0.609112337,0.401800167
0.687599267,0.979986873,0.304377091,1.561404899,0.967585769,-0.981821265,0.076236601,-1.439422469,-0.479959332,0.687317768,0.343609491,-0.87065666,0.29228713,0.25127508,-0.029152979
-0.433190788,0.897082566,-0.062888689,-1.370350166,-2.085867246,0.677629983,-0.858610631,-1.081030239,-0.564728911,-0.975489226,-0.582243751,0.834651782,0.262368766,0.149917836,-0.245835999
0.48304605,0.547793919,0.434087184,-1.020857888,0.387837982,1.415794442,-1.294368821,-0.990058003,-1.059598148,-0.621191185,0.04185509,1.728428476,-0.275894164,0.092193683,0.098881636
0.184126074,1.324423973,-0.030761194,-2.206863925,1.205789681,0.353310347,1.238464965,-2.208430419,-1.098948375,-2.581393462,-0.865177345,0.758715977,0.63872515,0.26168242,-0.348365844
-0.567888982,0.993163715,0.157989416,-0.110173401,1.882253944,-0.092936504,-0.257629772,-2.912175246,-1.488815879,-1.258694536,1.04391167,0.076480397,0.063203627,0.643273634,-0.080351728
0.654448959,1.982674123,0.191780731,1.422071747,-0.097652582,0.892024626,1.524700274,1.413980971,-1.426160598,0.468764129,-2.280567615,0.730053423,0.067578832,-0.351579457,-0.030965996
0.219828728,1.287126115,-0.566012813,0.414161309,0.190059791,0.07230593,-2.265333558,0.629695392,-1.480352155,-0.074989352,0.683989604,-0.587415929,-0.130890923,0.259178115,-0.699492212
0.445239848,1.459032086,0.412399807,-0.445047618,0.421355218,1.08320143,0.067586456,-2.381582422,-0.920969827,0.017474462,2.20414198,0.968377444,0.279005116,0.030678369,0.823554988
-0.016278287,0.579589304,-0.083703412,-0.570658397,-0.174575514,-1.03092577,-0.428070772,1.926989221,-1.215684918,-0.043566733,1.069819605,-0.942345663,-0.209994626,0.337730001,-0.173274205
0.40497219,0.602784778,-0.284160792,1.280723673,-1.085412375,0.399112915,0.554179524,2.195568677,-1.446970669,0.833343435,0.217110078,-0.058153605,-0.54562973,-0.42705705,-0.082645601
-0.118915859,0.805846258,0.023801041,0.443507874,0.772016666,0.978346858,-2.990974436,-2.645968443,-1.52720343,0.172146856,0.447703029,-0.281491303,0.094327573,-0.070748829,0.091834815
-0.158833473,1.47770077,0.216950499,-2.441849915,-0.431872604,0.629089503,-2.373132805,-0.714794382,-1.496968026,-1.652710054,0.401324203,1.510998125,0.22013414,0.755963745,-0.098312615
0.003715678,0.88818214,0.229689009,-0.828483926,1.275628473,1.287486405,-2.933557047,1.59964344,-0.798304961,-0.160373088,1.141356027,1.702014598,-0.032650675,-0.138401897,0.214534146
0.280800155,0.866315705,0.829812858,3.515538639,-0.148254463,-0.755568059,2.94894911,0.860066196,-1.250775618,3.172237093,-1.673766442,0.220582841,0.210347285,-0.680503958,0.682662522
0.295961883,0.442903994,-0.008146447,1.58518247,1.14890999,-0.224641611,0.300539225,-2.098935631,-1.279286978,0.329700018,1.073061483,-0.373181194,0.220861513,0.612124416,-0.169657991
-0.189452947,0.730263068,0.351874233,-2.851595531,1.825845052,0.658894308,2.836957555,-0.732879619,-1.028929105,-2.834020671,0.811537392,0.517966921,-0.017125816,0.368019631,0.119926305
0.78866286,1.216518049,-0.187223936,-1.032165262,2.781934775,-1.019744104,2.367009574,-1.009492336,-0.223769974,-1.121485308,2.355413548,-0.64186622,0.397383466,-0.57952276,-0.065776429
0.50202733,1.671284301,0.575727767,0.789756165,0.267278633,0.137332175,-0.217275595,-2.477279922,-1.3235008,1.171563783,-0.628115654,0.736003032,0.931020496,0.369175472,0.752892751
-0.28744621,1.271466378,0.864933093,-2.08418394,3.149620895,0.360053444,2.672298037,-1.811028176,-1.071242216,-2.096946098,2.449209665,0.939283962,-0.335609749,-0.616236289,-0.021485345
0.535278811,0.738869916,0.213666546,0.59739545,-0.369607066,0.860201931,-0.806288606,-0.770092648,-0.91328775,0.126221856,0.2100366,0.893722294,0.187553823,0.580150287,-0.099922987
0.248473206,0.908699299,-0.487410483,2.217693513,-3.575659786,-0.366245533,2.711468297,-1.439562257,-0.72929548,2.203607654,-3.947637365,0.132532171,0.051703456,0.160854795,-0.083699099
0.021683041,0.702463139,0.102818351,-0.52887072,-0.517078638,0.243683247,2.460939042,-2.477368085,-1.250792485,-0.254361226,0.083000064,0.519737294,0.491283378,0.046634794,0.064716423
0.327030227,1.167854034,-0.079584111,-1.254667438,1.549293675,1.420698041,-0.175892833,-2.215174101,-0.541057473,-1.874416529,1.917688219,1.105904189,0.465053859,0.507718702,-0.239270116
-0.337036703,1.097285704,0.318001276,1.730351016,-0.291632828,0.813383292,1.856301335,0.122084121,-1.431286096,3.465378441,-2.136995837,1.215792571,-0.014347768,-0.349856402,0.202918548
0.822640715,1.043561881,-0.096622905,0.402978972,-1.123493646,0.031267624,-0.406368599,2.419736075,-1.110493597,-0.104871447,-1.571174186,0.333218271,0.165795295,-0.043344977,0.138382935
0.108620758,0.811686712,0.05817598,-0.996060464,3.196551123,0.725563421,1.92472203,-0.846022565,-1.416671376,-0.581436207,3.963388144,0.299224173,0.014352162,0.157285556,-0.176837815
0.352971891,0.485979223,0.447497123,1.271121926,-0.738532537,-0.622476346,-0.684039997,-0.39043346,-0.952954303,0.827320131,-0.355622538,-0.233155219,0.082527438,0.385934179,0.452829439
-0.054645422,1.29778759,0.297414678,1.357546652,0.207045463,-0.038000069,0.835264102,0.250334599,-0.923766562,1.434799019,0.259367387,-0.219819872,-0.192337717,0.075654941,-0.442520023
0.994410094,0.643201881,-0.513649675,0.806239938,-1.46936034,-0.024633286,2.791750707,3.121985369,-1.067245207,0.485068609,-2.171867397,-0.198235346,0.565122098,-0.251659696,0.21449956
0.076765216,0.595378106,0.649439627,0.930356473,-0.576685296,0.914418241,0.30590911,-3.11027488,-1.513491055,1.138182999,0.726882717,0.814952493,0.642429098,-0.092622327,0.011816079
-0.366992042,1.674940214,0.186864989,0.263624807,0.035444586,-0.142457457,-1.370778898,-0.559757845,-1.20442636,-0.051303337,-0.158848381,0.674302374,-0.185381363,0.171102935,0.299813445
-0.248088936,0.770516378,0.04875933,0.02210776,-0.963891817,1.693077342,3.002752684,-1.528352555,-0.678411771,-0.087753396,0.132640122,2.074571682,0.220788618,0.029110801,-0.067281909
0.379731233,1.398349266,0.471640318,-0.079565665,-0.627791739,-0.009326922,-0.315193823,1.793657782,-1.057131783,0.00238233,0.633293765,-0.389752187,-0.131493418,-0.586062074,0.532550435
0.716293892,0.58333054,-0.606246057,0.485241512,-0.537168471,0.099332038,2.961112178,-1.330293255,-0.809194693,1.105132272,1.450982301,-0.644004307,-0.092611681,0.02178268,-0.634491079
-0.425143021,1.211683627,-0.224932788,-1.717783601,-0.699979822,-0.482074592,3.037357918,1.625429468,-1.561682668,-0.546256429,1.271168704,-0.167035401,0.206790722,-0.147581317,0.231355165
0.647200982,0.529712517,-0.114794157,1.516753897,0.189177124,0.463560304,2.094421283,3.007787504,-0.647398514,0.82811162,-2.060238981,0.923402531,-0.069436882,-0.567279851,0.679910283
-0.471133108,0.842255323,-0.123738085,0.893632912,-0.731438329,-1.120192449,3.117473998,0.955109291,-1.36561631,2.004718782,-1.120836661,-1.037704235,-0.809308711,-0.834468699,-0.35399235
-0.368294885,0.661656853,0.220086821,-0.958237918,-0.917701555,-0.115510106,-3.043124316,1.702687069,-1.304844345,-2.094669203,-1.574248825,-0.649367504,-0.062843612,0.817832749,0.110438777
0.251317267,0.427807189,-0.337130596,-1.368952768,-0.817152684,-0.531854938,-1.410000129,-3.000375418,-0.690554147,-1.667737253,-1.649115313,-0.156723336,0.28424793,0.43627964,-0.195628049
0.903047706,0.871628612,-0.060474346,0.015954127,-0.10848818,0.819482583,-0.398660554,2.73576422,-1.134164077,-0.829969692,-0.897181837,0.305224278,-0.445209582,-0.373124626,-0.19522486
0.574307099,1.145670303,-0.187309141,-1.953330957,1.816284286,0.590928392,0.287111139,-0.892319995,-1.348592776,-2.115902552,2.005168342,0.615004066,0.06172556,0.097425252,0.068271015
0.021668758,1.457160491,-0.191134999,0.938921279,0.516610396,-0.053010837,2.811392027,0.390126185,-1.402795996,0.610590519,1.238495289,-0.126340518,0.005895931,-0.59928339,0.225637074
-0.293794476,1.422291842,-0.04011306,-0.137637364,-2.374803506,-0.77229234,1.665354212,1.153895974,-1.497503875,0.686356376,-0.29475889,-0.633137611,0.377019046,0.333431454,0.419966864
0.177486145,1.734714183,0.386209824,0.313401822,-0.84386973,1.378873145,-2.966896698,1.401428359,-0.962066906,0.062695469,-1.956298991,1.616599828,-0.250558676,0.15456648,-0.146991741
-0.016640579,1.066622077,-0.384141945,-2.170554481,1.717080027,-0.489034913,2.501395654,0.964012714,-1.50048952,-2.29044536,1.7921545,-0.482708891,0.159013263,0.558516168,-0.134552326
-0.055948827,1.981412777,0.551052495,1.519200067,-0.185767203,0.369677505,0.180710011,1.582427095,-1.486081257,2.263373407,-1.276583302,-0.333193089,-0.159135287,0.578107635,-0.08698866
-0.265226844,2.0214658,0.757673691,1.192898993,0.340944707,0.521750393,2.322815146,-2.624049681,-1.450050463,0.992510813,1.709941735,-0.0394405,-0.097900096,0.240502739,0.15389373
0.506188083,0.42589524,0.132424811,0.713939969,-3.20662526,-0.775038702,1.291288195,-1.86654193,-1.229876096,1.26005526,-2.820719238,-0.500252195,-0.058458911,-0.753536858,0.072282348
-0.054926932,1.252344464,0.391010847,-1.877130622,0.389236891,0.734975772,-0.437510822,-1.705786251,-1.100856483,-1.759931329,0.240784248,0.86416632,0.295283459,-0.183493991,-0.578194367
-0.373909075,1.682228869,-0.434661357,0.949100966,-1.685131759,1.491058572,1.773636195,-2.002953763,-1.546421376,1.42454731,-0.070702252,0.855287522,-0.630012714,-0.148586962,-0.334044278
0.438027872,0.567428036,-0.492160314,0.926819582,-1.286361655,0.085343603,1.129976805,2.323737228,-1.493545061,1.614894733,-0.575255997,-0.424309345,0.048548692,-0.064504751,-0.023516479
-0.647702154,2.09102741,0.516381172,0.992937952,-0.141620999,-0.693931913,1.901105548,-2.957891008,-1.457989003,2.188467046,0.932830077,0.130134184,0.405094559,-0.132476634,0.137930605
-0.177914395,0.624080362,-0.314013336,0.576853999,1.940041478,-0.352475735,2.172617687,-0.993087134,-0.801597742,0.654921574,1.49727797,0.305718689,0.164708076,0.663049388,0.129035155
-1.000869051,1.205793436,-0.38056597,-0.921373358,1.570236621,0.149935255,-0.503781864,-1.246329616,-1.375439902,-1.960386719,1.19721691,-0.769543232,-0.358824571,0.788727663,0.014190949
0.547671135,1.048851265,0.374418473,0.704790162,-0.914509482,0.147985165,2.635201681,-1.575716691,-1.407986535,-0.341893396,-0.079225318,-0.901619331,0.407812863,0.203501507,0.381255386
0.017832235,0.955917739,0.137743735,1.61112939,1.069561782,0.305173262,-0.495369268,0.675882508,-0.688938269,1.602955097,0.369042338,0.367788693,-0.243788063,-0.985767718,0.118608265
0.3378209,0.641583699,0.287126843,-0.521943399,0.80789792,-0.82562251,2.514406445,0.820069052,-0.811148269,-0.435813127,-0.134115533,-1.152226502,-0.358488044,0.036741955,0.096736895
0.123619019,0.680311241,0.148029306,-0.578288347,0.160270491,0.768280844,1.31463795,0.196787273,-1.173389905,-0.409760463,1.597209614,0.262371238,-0.664560609,-0.323411289,0.016905037
0.14076331,1.353055538,-0.67264538,-0.584336607,0.517516338,-0.157338927,-3.118948099,0.330130155,-1.495061676,-0.5438472,-0.4262656,0.12270426,0.612409959,0.414637416,-0.030660172
-0.482215804,1.201315247,0.081580816,-1.294159081,-0.228379015,0.484290516,-0.601638372,-1.522213771,-1.354153076,-0.563771828,-0.357643116,1.4068684,-0.076308046,0.382947147,-0.141956463
-0.175927727,0.555927379,0.160202047,-0.753566692,1.468524153,0.135147042,-1.872746265,2.262930179,-1.040150584,-0.578385359,0.175229974,-0.265958625,-0.36321188,0.067599652,0.369053793
0.786605876,0.346137324,0.033325083,0.100131183,1.831217071,0.439600563,1.887325469,2.297765849,-1.029458785,2.036024513,0.01278055,0.664298823,0.520325482,0.478013668,0.408265706
0.210034352,1.029258825,-0.066077593,0.455820521,-0.279831595,-0.314622449,2.812767119,0.27727357,-1.097433846,-0.333698423,-0.72461398,-0.840846003,-0.066841493,0.134150093,-0.102401777
0.708765019,0.62823269,-0.178773189,-1.056934745,-1.154986801,-0.334791151,-1.351390655,-2.104622586,-0.991685783,-1.073169332,0.305028387,0.161599955,0.262659776,0.196809954,0.200925378
-0.100668305,1.242575163,0.120529873,-1.424202066,2.630316494,-0.562252997,-0.428981393,1.343260152,-1.54656834,-0.701891315,0.670172308,-0.089375049,0.039901352,0.411722694,0.295476825
0.087334961,1.687099561,0.085620486,-0.254892759,-0.325132601,0.784107957,0.12239388,2.430518709,-1.541282992,0.239969199,-0.829698513,1.195841228,0.058870033,0.166661409,0.239658081
-0.095856713,1.431559957,0.474095733,1.349824205,-0.668509935,0.891079544,-1.210319889,-0.81485975,-0.966148877,0.573404598,0.3054845,1.412984074,-0.269122675,-0.698035228,-0.152660462
0.118671758,1.259521197,-0.499240112,0.798588804,-0.052778266,-0.025414621,1.33437844,-2.492581365,-1.016072255,0.817519794,-1.007203442,-0.058799903,-0.124800944,-0.601835922,-0.198850155
0.429880182,0.533977267,-0.138928884,-0.430039098,0.358588718,-1.066295144,2.255576948,-1.77327451,-0.487997053,-0.26546143,-0.187737719,-0.440307372,0.297697005,-0.198381282,-0.351126691
-0.321436657,1.341103716,-0.123257069,0.939156574,1.219860616,-0.292997103,-2.416068479,1.525214942,-1.539256249,1.925987259,-1.554415574,-0.179681018,-0.68787011,-0.892984635,-0.225244992
-0.021246023,1.123861108,-0.068248949,-0.114613988,-0.362100486,-1.510882439,1.637443838,-1.69713066,-0.676297985,-0.903950105,-0.806657101,-1.271482939,-0.143230956,-0.160426905,-0.242562611
-0.864612565,0.887437982,-0.249954499,1.280562862,0.837937003,-0.420552514,0.577871966,1.227769105,-1.547335812,2.074218026,-0.376748766,-0.465578828,0.536000867,-0.207552018,-0.232536817
0.114114953,0.117343786,-0.250735205,0.529147364,2.836511252,-0.383352206,2.030984935,-0.190445471,-1.062911289,-0.700473193,2.629687311,0.202175559,-0.130490256,0.104912811,-0.310757886
0.421027053,1.084427784,0.287218523,-2.033214691,-0.132225398,0.986043414,-0.434656074,2.285099251,-0.957011024,-1.7380562,-0.445989636,0.217181052,-0.178908023,0.561337482,0.195514344
-0.369606352,0.343969539,-0.377356869,2.02876142,-0.918416453,-0.629415136,-0.63119025,-2.265675581,-1.288901559,2.00025328,-1.587105947,-0.518591683,-0.082150033,0.134920191,0.206210928
0.765046188,1.208125715,-0.700784161,0.340077918,-1.310105653,-0.412160659,-1.667909601,-0.710680623,-0.873745748,-0.147031141,-1.693353332,0.14843971,0.60584454,0.890951576,-0.526315879
-0.278974913,1.746547538,0.342605948,-2.493713354,-0.259152951,1.579156376,0.277536311,1.918035371,-1.507642404,-2.703341043,0.877549731,0.963287732,-0.270615184,0.624142372,0.301752454
0.220962085,0.562017343,-0.025627887,0.678339215,-1.327080983,0.32134112,-2.535233478,1.807835688,-1.337352222,0.9087972,-1.100148599,0.514746153,0.278270968,0.182371244,0.087794309
0.580926792,1.137399105,0.0656837,-1.112880481,-0.211663561,0.765050459,-0.949366101,1.692214734,-0.599103597,-0.306793506,-0.299426715,0.98664076,0.20906082,0.129546243,-0.242697835
0.559315197,1.102758403,-0.595362804,0.404817891,2.109175938,-0.062682632,0.320696159,-0.524275204,-0.797953608,-0.078613399,1.009697533,0.509531833,0.481509662,0.365283845,-0.528782848
-0.402266055,1.150060993,-0.128910567,-0.543054457,0.62040339,-0.74182418,1.917836266,-2.73168941,-1.442706394,-0.046411761,-1.308701777,0.003610081,-0.593353257,-0.233512388,-0.258098862
-0.565562778,0.75784695,-0.20548986,0.876087092,-0.556727427,0.493963736,-1.877096711,-0.816747158,-1.248830901,1.335583719,-0.898186583,-0.241792105,-0.326149768,-0.324210652,-0.311051195
-0.211279145,0.137178783,-0.069842933,2.130379754,-2.003654136,0.191426635,-1.267531531,-2.040150809,-1.38085045,1.040881155,-2.122903464,-0.470965225,-0.31679663,0.353296108,-0.15821851
-0.231748892,0.337143417,-0.647680855,0.642473941,0.615164028,-0.540262704,-1.793311954,-0.469524935,-1.40652555,0.698444672,2.833967395,-1.48136134,0.056379923,-0.589155577,-0.70241589
0.098315562,0.940309159,-0.436289134,-0.552925855,-0.49166314,0.089280713,2.607082189,-0.107752485,-1.247605622,0.680679703,-1.207037768,-0.107949337,-0.069084054,-0.461997803,-0.370826357
-0.386307927,0.899616979,0.541449177,-0.509892324,2.164982543,1.905572238,1.820103236,-2.399305666,-1.20421138,-1.279529249,3.363536885,1.248631509,-0.491867808,-0.004231991,0.234599133
-0.218433289,0.961003898,-0.034485291,-0.855155639,2.70419364,0.033219153,0.689295839,-3.008455279,-0.732266999,-2.163871,0.891343696,-0.09061968,-0.360420031,0.43854431,-0.399255287
-0.118875764,1.178859469,-0.286143417,0.585005474,-0.628240071,0.827071304,0.054516477,-2.461888583,-1.394086843,-0.161821392,-1.707651636,0.54514256,0.179895097,0.32262437,0.079959561
0.037551539,1.415187848,-0.466929445,-3.114260594,2.867808286,-0.365786218,2.721850007,2.217147362,-1.34285569,-2.729126847,0.962660161,0.32649766,-0.107283647,0.082168462,-0.494330052
0.175995846,0.960191046,0.174813065,-1.625812982,0.152618385,-0.641724,-2.251739325,2.411464793,-1.555605686,-1.190843732,2.231826319,-0.931123134,-0.302224378,-0.310201937,-0.18259478
-0.074977875,0.724550992,0.307530521,0.849909729,-1.109168278,-0.022216425,-0.265785757,-2.33064331,-1.061042636,0.666404692,-0.72393562,-0.104353786,-0.592222699,-0.077704465,0.70456192
-0.290342725,1.18405677,0.12606313,-0.034676677,-1.467392818,0.399891104,2.971941231,2.226857229,-1.49946725,1.010085451,-0.05957267,0.322845549,0.173173015,-0.047172308,0.605259286
0.50514277,1.542759914,-0.308074553,3.073027533,-0.739532754,-1.133623032,-2.703288522,2.824020173,-1.421187134,3.077787565,-0.744673837,-0.272557796,-0.227514686,0.441049449,-0.130430263
0.058289305,0.450722255,-0.531716544,0.345062858,-1.926327593,-0.419202132,-0.065930068,1.758576992,-0.076656998,0.487932109,-2.840233043,-0.467354422,-0.574001727,-0.554065318,-0.446881377
-0.039387003,0.624973314,-0.22434207,1.84407189,-0.744091769,-0.057724084,2.636471973,2.055006982,-1.078907019,1.179731685,-0.289545113,-0.432583305,-0.080218848,0.269411743,0.255377415
-0.051517357,0.899726449,-0.287261783,-0.792464718,0.052293351,0.26825086,0.193628556,2.649036103,-1.328318763,-0.595739143,0.852805678,0.242380141,-0.219492209,-0.096592125,-0.052371122
0.799478744,0.377199559,-0.057710168,1.874287848,-2.546972503,0.512445656,1.045211947,1.400387388,-1.037843753,2.231367713,-0.560890549,-0.100800153,0.44170134,-0.02341647,0.61494805
0.255379179,1.044043827,0.324975355,0.513519724,0.012425903,0.211154137,1.373143193,1.619419131,-1.14048279,0.059866497,0.909986427,0.572504664,-0.209499172,0.068352427,0.399680883
0.333332697,2.056767183,0.111518467,0.571591635,-0.30588156,-0.291197792,0.584591635,2.603342812,-1.533310642,0.33094032,-1.574224801,-0.532966175,0.406342649,0.526966689,0.132007676
0.437632124,0.56309332,0.206788248,1.291668834,0.931690226,0.595029956,1.758314437,1.737486205,-1.311908191,0.516587025,1.729793695,0.597826499,-0.247741198,-0.294587913,0.234735021
0.142179567,1.650352032,-0.160394696,-0.516123832,-0.174651005,1.49205053,1.822464674,0.63715395,-1.334400398,-0.173075189,0.848842881,1.595462306,0.244924066,1.074841983,-0.155800952
-0.041110179,1.195959129,0.105593965,-0.454472701,2.910838357,-1.169184036,1.795868649,0.225079981,-1.54399247,0.178825985,2.504084437,-1.235233425,0.007625188,0.328156041,-0.403234867
-0.490285549,0.048029182,-0.171558969,1.998316957,-1.1825318,0.676256335,2.939826697,-1.967369237,-1.038178435,1.410327078,-1.090279046,-0.885771507,0.458936646,0.450772711,0.137992944
0.311739403,1.755507262,-0.495355571,2.145772057,-1.428504047,-1.378467116,-0.10316706,2.282585166,-1.492545439,4.221795219,-1.508557,-0.690968797,-0.440189853,-0.646932295,0.501642752
0.256719614,1.718054079,-0.111313657,-0.049973038,1.821253681,0.262767442,0.011254733,1.468647576,-1.316477643,-0.568920983,1.718132931,0.571678299,0.200278739,0.357134479,0.328305571
-0.213675899,0.747504453,0.203900647,1.689855429,-1.453326767,-0.333242293,2.582032459,-2.589011037,-1.376234574,1.980533687,-1.380647281,-0.012625142,-0.036405504,0.059253505,0.255767807
-0.914984668,1.747067851,-0.414354135,-0.766396304,1.431041915,1.217287086,-1.669510668,-0.829152364,-1.443792839,0.248965374,0.011405385,1.722605328,-0.242978542,0.411071947,-0.209758154
0.67260061,1.945246007,-0.112900044,0.470049161,-1.850322434,-1.418187576,0.937871993,0.359763426,-1.208992823,-0.159808325,-1.962259739,-0.933200497,1.105354066,-0.083455915,0.148037067
-0.049433022,0.004247284,-0.09876112,-2.157397682,1.298079613,-0.070347882,0.142855646,1.258088152,-1.011436152,-2.389660695,1.539350601,-0.175189707,0.111898999,0.468566462,-0.096208101
0.457143213,0.446480731,0.377289693,-0.659427034,-0.5961206,-0.292486886,0.187398027,1.76658137,-1.209815954,0.321548113,-1.671799036,-0.183892753,0.206884736,-0.021062042,-0.066422904
0.47466393,1.140590304,-0.610547511,-1.448384066,0.576765743,-0.309967875,0.377508924,-0.510072884,-0.93461247,-1.426425162,0.06332043,0.444745598,0.554504456,0.509003519,-0.283412043
0.530891119,1.321240518,-0.016380282,1.280470375,-0.495756053,-0.082530002,-0.482062865,2.057007733,-1.126794886,1.201034465,-0.327216606,-1.524510391,0.313913186,0.880243836,0.127398479
0.206132197,0.870018097,-0.085400707,-0.037249361,-2.563822557,-0.291873241,-0.247136654,-0.256575555,-1.357666302,-0.831997756,-1.307430247,-0.848896098,0.302885832,-0.567162089,0.31486571
-0.00782258,0.489142478,-0.050811297,-1.401944148,1.400973904,-1.531593411,-1.44063712,-1.962808134,-0.80330483,-0.533553077,2.363083217,-1.004120828,-0.123846672,-0.387753385,0.276629602
-0.247679809,1.475068939,0.423527714,1.878210091,1.179836648,-1.625329062,1.116624947,-3.008215439,-1.365251082,2.061252378,0.868440249,-1.16926674,0.724293574,-0.238400655,0.042641753
0.691890396,1.715859462,0.267281523,1.40386296,-0.318714361,-0.54364795,1.282860315,1.157390166,-1.513074979,0.911264165,-1.353878142,-0.251801551,0.029430337,-0.212321041,0.320047216
-0.780585801,0.972301279,0.131014756,-2.237312008,1.399976262,0.088552764,3.108060375,-2.386393444,-1.347832028,-2.328666463,1.039117905,-0.275748907,-0.376999979,0.309954328,-0.364018031
0.148052219,0.452568947,0.346716661,-1.099635117,2.561272638,0.175313688,2.486602061,-1.023029141,-1.230332536,-0.763042344,0.357697404,0.128181372,0.025143184,-0.177623973,-0.293366425
0.716098333,1.002600766,-0.373229716,0.578863209,2.381909411,-0.679226874,0.399212836,2.658630074,-0.554657125,0.97081983,2.353197536,-0.892550174,-0.319383934,0.557042326,0.031863465
0.64158739,1.531593492,-0.582518509,-0.976136374,1.39177386,-0.241958442,1.096952775,1.765826626,-1.03489085,-2.177103969,-0.484668093,0.417565127,-0.00510734,0.199206637,-0.376503517
0.52460461,1.489185372,-0.410213015,1.730121413,-0.343743232,0.319537278,-0.061716164,-1.188518675,-1.142279003,1.14117499,-2.004243094,0.575628239,0.333613068,-0.078315426,-0.572634734
0.10091276,0.411778127,-1.055140693,-1.12184332,1.795398004,-0.304013583,-0.627944573,1.352025994,-1.097184394,-0.222904664,0.288046718,-0.478999745,-0.163213471,-0.030107904,-0.413423812
0.693064101,0.613495374,0.065402828,1.784329509,0.164263043,0.606327659,-1.814010287,3.000606102,-1.288598977,2.489526976,0.424000987,0.343341927,0.10589117,-0.024860771,0.216740719
-0.25216978,1.166467817,-0.339413592,-2.122223221,-0.593209748,0.145368651,-2.646392566,1.751917449,-1.494750992,-2.360605522,-0.676729198,-0.046077717,-0.796976816,0.747198341,-0.230104721
-0.295180045,1.239909297,0.756486913,-0.790641133,-1.09093987,1.034522292,2.363604442,-0.348218916,-1.463383543,-0.744307578,-0.327480206,0.957766343,-0.214016797,0.16930453,0.459128883
1.576344328,-0.028512256,-0.139092644,2.065913683,0.006539649,-1.037605532,-1.381161863,1.161296126,0.224039608,1.813330995,0.205527929,-0.803899946,0.233013062,0.57176953,-0.094136987
-0.426890099,1.266570318,0.47042173,0.371714636,-1.20766189,1.140091285,-2.042266866,-2.307962759,-1.279939968,-0.05300243,-1.642617361,0.965302152,0.295368203,0.069858916,-0.353111705
-0.289535533,0.248991774,-0.316566329,-0.193532548,0.413717845,0.099373236,-2.721103337,-0.297480599,-0.553805792,-1.184658162,1.20964557,-0.091953643,-0.396708015,0.249723492,0.309911175
0.929649266,0.035877465,0.718475003,0.537690754,-0.519215654,1.02432603,1.561990938,1.028959598,-0.350072361,0.896669644,1.043389461,1.107488291,0.112552792,-0.024258388,0.401953567
-0.123686712,0.03350524,-0.639067663,2.363522496,0.059162661,-0.830969806,-1.873753209,-2.902972183,-0.746123886,1.76174606,-0.425714709,-1.051546348,-0.157243808,-0.665565481,-0.478638899
0.039108821,1.129220835,-0.38225806,0.095984451,1.610422862,0.493877351,-0.847847994,0.86496103,-1.30480875,-0.476768378,1.676124241,0.387147717,-0.102161311,0.07638114,0.102898479
0.17732075,0.683433511,-0.45659405,0.635527586,0.515421582,-1.193923467,1.05359101,2.481174334,-1.41711277,1.096209893,-0.640946141,-1.628422394,0.276022178,-0.165220589,-0.495595799
-0.324823509,1.134196516,0.151220484,-1.901334601,-0.199647189,0.153277499,0.224983642,2.246670426,-1.501962048,-2.563571294,0.58411633,-0.14724906,0.04638837,0.828606285,0.27333535
0.983704544,0.81589651,-0.004715276,0.494392429,-0.161937082,-0.0208475,-0.302817004,-2.038214612,-0.08853088,1.173909686,-0.308920128,0.934313896,0.298650366,0.35854493,-0.010669671
0.398813557,1.761803138,0.636122531,-0.15903415,-1.40906495,0.687987218,0.800624767,-1.670929375,-1.501512465,0.516977203,-0.240592251,1.636668567,0.025153664,0.852876918,0.622994143
0.916632387,-0.273728031,0.293066245,1.537772221,-0.792498909,-1.384763559,-0.916234351,2.573656205,-0.389872668,1.847205333,0.176205648,-1.037100064,-0.147329361,-0.271259102,0.278812102
0.243591266,0.745405738,-0.135842178,-1.253875657,0.047878236,-0.38377541,-0.610695531,-0.555815286,-1.509310437,-1.7150438,-0.154369822,-0.052290777,0.341353969,-0.452807164,-0.201718105
-0.145826973,0.142495998,0.226262935,-0.483806906,0.901432927,0.277646998,0.823773636,-1.397987303,-0.759342279,0.425659724,1.175413972,0.441330478,-0.417772872,0.052213896,0.036493317
0.419264885,0.578736347,0.062018106,2.794673926,-2.241362125,1.090487255,-0.533831093,0.330750869,-0.847640474,1.050828899,-1.699587284,0.136857138,0.355082655,-0.019071452,-0.182650873
0.520462085,0.082127588,0.364644496,-0.56657636,-0.498607744,-1.29252164,-2.240382545,2.325262647,-0.727115157,-1.271028123,0.129161799,-0.917420416,0.229321245,-0.758793001,0.329295639
0.760792156,1.382644247,-0.030012389,0.655295987,-1.639549803,-0.035729083,-2.896800607,2.195503208,-0.965747764,0.327920873,-1.008514861,0.794424259,-0.008675824,0.209943619,0.130218025
-0.200916021,0.294240146,-0.150913869,-0.025324321,0.503117396,1.111693264,2.816797347,0.378407317,-0.977932133,0.143836879,2.172252777,0.93066413,0.060121782,0.09493914,0.084453251
-0.169258191,1.196410982,-0.082248582,-0.181460749,-1.152540446,0.406951348,1.477147544,-0.732700525,-1.301935213,-1.309339822,-1.558311761,1.855326402,-0.292514607,0.395228854,-0.096664617
-0.12673407,0.06011818,-0.373780345,-1.193278031,-1.202829283,0.010689143,0.933071054,2.270198553,-1.154305664,-0.563944928,-0.208434874,-1.155006411,-0.443708414,0.018666182,-0.065455144
-0.251316277,1.799685839,0.570044968,-1.55034022,0.166648283,-0.135843436,-2.485990956,1.287523673,-1.443128022,-0.519946862,-0.251234893,-0.121789684,0.364873134,-0.211057546,0.493640252
0.456518784,0.225127975,-0.134221951,-2.301016962,1.497593196,1.273230527,-2.40817863,1.644064518,-0.595856415,-1.238378527,1.024373397,1.035103607,-0.112937084,0.47917112,-0.448902095
0.104926886,0.071051629,0.011995229,-0.801783381,1.166798789,-0.735662247,-0.321368729,-1.953391417,-1.198408679,-0.429443483,1.439632896,-1.348353556,-0.069507504,-0.211471796,0.158566904
-0.662603271,1.245939647,0.336931913,-1.019265282,-0.826712624,0.193143722,1.548019387,0.318728807,-1.516669693,-0.486955572,-1.075243015,0.41040951,0.415742346,-0.376896112,0.25398027
0.403813129,0.924484063,0.116416679,0.960520491,-1.774835971,-0.022951247,2.998308556,1.120960136,-1.152515865,0.838949493,-1.051204495,0.389529882,0.422928931,0.941932653,0.197721568
0.055252756,0.647703024,0.36880201,-0.89357733,-1.563839525,-0.245639523,1.885924689,-0.28875581,-1.250440167,-1.56469159,0.277311247,-0.986112326,-0.14483418,-0.27823206,0.320875667
0.648696639,0.608599164,-0.178382284,0.32614406,-0.334085888,-0.480707503,2.38842764,1.799448509,-1.164940157,0.450785288,0.584643148,-0.877270832,-0.087382506,-0.498047752,0.06983131
-0.632923647,-0.057128066,0.003881804,1.536315267,1.181739031,-1.645412865,2.641258018,-1.967780119,-1.091166358,1.179760477,0.709732211,-1.008766636,-0.240317225,0.215972267,-0.040765888
0.16020724,0.261829446,0.450786306,-0.697574402,2.508357522,-0.565272851,3.057028226,-1.542666376,-1.102405913,-0.695942823,2.85053911,-0.839006005,0.278153349,0.258733816,-0.227465932
0.124233297,-0.088723269,-0.341349548,-1.899685099,0.779232729,0.071651012,-1.031876904,2.875860895,-0.290049878,-0.886744789,1.242080618,0.46927085,0.174703411,0.770730152,0.245197969
-0.525829831,1.403217077,0.345754816,-2.25978795,0.510875123,-0.162475599,-1.366032977,0.047622613,-1.47472374,-1.347398608,-0.330753824,-0.329529338,-0.188348225,-0.254386251,-0.227370678
0.057191001,1.06894777,0.32120608,-2.080382089,1.491583479,-0.018158065,-1.104839192,0.56573871,-1.190656691,-2.896078919,1.162226516,1.187482579,0.111914915,0.452011344,-0.305379369
0.737257599,0.854953566,0.164794455,0.910431594,-0.125544638,0.269683299,2.317594962,0.658539928,-1.079139421,-0.2680361,-0.098369496,1.061857733,0.975902486,0.425746816,0.161338157
-0.47270541,0.984814238,0.337683358,0.709077743,0.824964822,0.073428975,1.13358374,-1.769675104,-1.369210629,1.212075767,-0.32187385,0.017306579,-0.394327272,0.633734419,0.020110842
-0.593868472,1.444427089,0.142006657,0.3370558,2.851336864,0.562974705,-1.326476846,-1.92841531,-0.929634285,-0.122860998,2.150326811,0.080137329,-0.522716873,0.239876771,-0.319692395
0.004977561,0.267028159,-0.015121172,-1.602546434,1.079157112,0.555167326,0.547274544,-2.228838546,-1.422178161,-1.369393313,0.087455701,0.761096591,0.491330876,-0.186097645,0.319714535
-0.531884444,0.493223797,0.008415472,1.166156548,0.14192762,0.441758428,0.254176024,0.525778133,-1.406148274,2.382168644,-1.378256421,0.296826969,-0.368246185,0.060594685,-0.231709551
-0.15241513,0.79563002,-0.098266227,1.167403105,0.045787781,0.572343401,0.513818033,-0.029502872,-1.09885576,1.091242641,-0.603817975,1.294980327,0.304360951,-0.584034242,-0.132633043
-0.320437276,1.539336292,-0.295894976,-4.12242442,2.814382387,-0.431230441,-2.004411225,-0.413943967,-1.485687496,-5.036589004,1.388806755,0.582202096,-0.716723098,0.661568506,-0.291150863
-0.630522287,0.449804931,0.082385595,1.06764071,0.213594113,0.536070344,-2.228386762,1.66343053,-1.421895207,0.189240654,0.823721179,-0.301723296,-0.428034076,-0.453631187,-0.44651
-0.213143456,0.515217982,0.152702129,2.199977305,-0.270810955,-0.578241834,1.713940777,1.242403948,-1.248225275,1.724797256,-0.344150826,0.512458336,-0.385077108,0.164493844,0.198032622
0.649359325,0.21062455,-0.444581083,0.910725384,1.19276404,-0.404588055,0.212843587,-0.238027144,-0.697027819,0.150819514,0.807707025,-1.405044645,0.347773645,-0.713306647,-0.463145391
1.140869081,-0.156082753,-0.029696458,2.463823413,0.903663763,1.018170666,-0.709448784,1.837956073,-0.285594365,2.856276515,0.943447356,-0.023130093,0.263442725,-1.026608065,0.251090976
0.190595101,1.218862793,-0.048558657,-0.734974496,-0.051015382,-0.758202789,2.313060935,1.603251206,-1.386578288,-0.51666875,0.829129569,-0.17518228,-0.476737567,-0.072833839,0.095220333
0.261088586,-0.19895288,-0.33085828,1.354888063,0.431846839,-1.191193463,1.605239445,1.492137006,-0.545805192,1.601008079,0.289991939,-1.062405572,0.00357608,-0.957876363,-0.390556511
0.036542487,0.077940783,-0.024504196,2.148832638,0.666636747,-0.558854879,2.04345737,-0.444290748,-1.011201124,2.181583278,2.026856066,-0.698293736,-0.018671336,-0.580237401,-0.081639559
-0.394781903,0.413267938,-0.477414954,-0.38994397,0.699932062,-0.535680047,2.605751101,1.48022083,-1.42733704,0.502749464,-0.092354486,-0.747202595,-0.077057506,-0.356440283,-0.086324674
0.114058963,1.387935574,0.153499167,0.25548822,-1.695591184,-0.703016246,2.603647005,2.542175513,-0.804210984,0.777957668,-2.192204639,-0.37079512,0.503029689,0.173508528,0.254495673
0.063819514,0.851624809,-0.208971454,-0.72768359,0.009606617,-0.77365475,2.576122134,3.077575701,-1.211031089,-0.091426467,-0.088508463,-0.785043052,0.311203976,0.112979387,-0.372318718
-0.771911471,1.379098512,-0.227793695,1.495805496,-0.745960433,-0.076566983,-0.525432206,-1.988005385,-1.516507937,-0.708943526,0.378145696,-0.493239398,-0.7175754,0.304201902,-0.115936311
-1.467679587,1.629372024,0.615830656,-0.00960307,-0.363984889,1.228018937,0.425071198,-3.020548188,-1.4722485,-1.151117065,-0.077160191,0.815965603,0.133678095,-0.277274185,0.039848566
-0.09099585,1.499066032,0.002426184,-0.178492403,0.179417576,0.370534479,2.610032728,-2.938948302,-1.33202054,0.184916104,1.743712736,0.510773933,0.6563417,-0.143975169,-0.0503012
0.278456763,0.748562994,0.249559022,0.059112379,0.50455686,1.652591904,-2.914286856,0.038477342,-1.469641065,-0.486400281,0.753921003,0.764547415,0.133655125,0.256558982,0.537927484
0.433488735,0.543746254,0.423995578,1.515152088,-0.145436095,-0.091512116,-1.969642388,2.945669835,-0.619535057,1.247343716,-0.549124224,0.057964837,-0.448010813,0.238772523,-0.235762137
-0.011301738,0.956403682,0.410709744,-2.979728101,-1.171329021,1.948116796,-0.665959177,-0.961114311,-1.228226352,-3.081292383,-0.554749945,2.315387643,0.159831428,-0.132826002,-0.274194148
0.399489067,0.806936696,-0.158978973,0.488235653,-0.396778539,0.57906242,-2.424328597,2.259358091,-1.33758005,-0.083671446,-0.119193382,0.002913403,-0.261181025,0.292853056,-0.376594084
-0.035282978,0.031663378,-0.286280589,-1.127187451,0.385363343,-0.028554062,-1.069181999,-2.073517366,-0.523227965,-1.802762538,0.264318986,0.159157404,-0.418734739,-0.147076819,-0.485822288
-0.200108529,1.048294339,0.250835729,-0.045614259,0.312119657,-0.22241901,1.027931324,-1.644598373,-1.212498359,-1.745710694,0.092374507,0.928550204,-0.153830277,-0.308656208,-0.318480384
0.102019341,0.643260576,0.000971326,0.479494093,-0.153190131,-0.126434178,-1.967688617,-1.816452186,-1.121576907,-0.91825432,0.025386267,0.229978573,0.467524569,0.225416284,0.217024239
-0.155059013,0.317462512,0.070087597,-0.824834631,0.497752996,0.570287261,-2.789148371,1.479442692,-0.996401324,-0.233997471,-0.018567544,0.768872034,-0.454348515,-0.550837422,-0.318540973
0.077377046,0.690877625,-0.834416634,1.631002538,-0.960532917,0.054745918,-1.787634744,1.036310108,-1.101228855,0.133328012,-1.043781043,0.392194675,-0.025327714,0.792385609,-0.70245868
-0.536816614,0.680853732,-0.728756058,1.344946508,-0.408939154,-1.506891534,0.785711794,-1.57200012,-1.239621621,0.070087273,0.304480244,-1.300675961,-0.379522372,-0.19442044,-0.780283028
-0.122582282,1.031041043,-0.13126825,-1.485760081,0.887521998,-0.903938918,-1.74548145,-1.33349144,-1.521235601,-0.215173492,0.381026498,-0.568832467,-0.067202609,-0.019586905,-0.219218514
0.791499949,1.153661762,0.169135622,1.270795249,-1.803086246,0.091865231,-2.519197355,0.473268028,-0.531286824,2.162154343,-0.895751022,-0.185334299,0.258824461,-0.08616704,-0.198278228
-0.327340113,0.98097536,-0.307700656,0.745146307,-1.409602021,-1.443835995,1.116396563,1.562037446,-1.553113585,1.453230995,-2.470653559,-1.685847153,0.079213358,-0.268316954,-0.07179137
1.214943093,0.552701707,-0.19760732,-0.720374944,-0.120311394,-0.771100429,-2.531056606,2.583933294,-0.851676393,-0.236574867,-0.328778236,0.586654438,0.228793108,-0.184141948,0.102234039
0.628604338,0.853642539,0.149376549,2.181958363,0.247776776,0.399509932,-1.175649573,0.679458919,-0.798150648,1.882912097,-0.642249435,0.260634942,0.774733682,-0.12382629,0.04231144
-0.291836436,0.138363969,-0.257416083,-0.188751498,0.433246119,0.002147186,-2.086274502,0.595021935,-1.403623522,-0.480170868,1.500965052,-0.325719685,-0.256273491,-0.212919946,-0.557926542
-0.624977849,0.307574801,0.273793335,0.191640693,1.181543582,-0.150678539,-0.896018038,-2.984072627,-1.52550941,0.714830316,0.994947823,0.152294319,-0.112513341,-0.119250595,-0.071567643
0.884510719,0.532436552,-0.431308571,1.350070118,2.181772456,-2.233797372,-1.839392802,-0.368844886,-0.405746935,0.268972425,-0.006045211,-1.84748491,0.061627611,-0.498033866,-0.248084214
0.859409414,1.217398019,-0.138337599,0.473989902,-0.757973329,-0.769530342,-1.398120167,2.467257111,-0.773383399,1.438209583,0.272025262,0.193411016,0.399167494,-0.314072331,0.313863049
-0.172298261,1.130136989,0.980974072,-0.44204893,0.923503405,-0.364155421,1.62678749,1.602959238,-0.791313388,0.450094303,0.23313707,-0.38679484,-0.566013071,-0.098875184,0.393243613
-0.525952572,0.799228689,0.006262372,-1.642227104,1.72505921,0.887000739,2.955967541,-1.75331672,-1.388033623,-2.054629696,0.154607914,1.229494836,-0.016871978,0.927079107,0.220381711
0.031876966,1.130409086,0.537532363,0.659934816,-0.113301893,0.12075676,-2.05261173,-0.475393372,-1.366624564,2.23464133,-0.474864486,0.723185074,-0.00401376,-0.536160733,0.376851182
-0.320533906,1.429597221,0.062844219,-0.124895821,-1.900353977,1.14904035,-2.310927625,-2.808935,-1.511636339,-0.716372376,-0.625358638,1.519533272,-0.039491966,0.163373642,0.464564128
0.671205569,0.321469446,0.04034743,-1.289863017,1.254514682,-0.491200296,0.600776292,-0.868179532,-0.630430691,0.501221218,0.06953725,-0.267507908,-0.388921852,-0.546513607,-0.593966199
-0.21460158,0.266102523,-0.958939532,1.094010265,-0.99634423,-1.011329577,0.013457372,-0.205932388,-1.412290951,1.144201115,-0.146491935,-0.529808345,-0.656303459,-0.565208979,-0.990284199
0.323594068,0.74845123,-0.171497847,-1.381028418,1.20274835,-0.029363864,-2.951557773,3.087266915,-1.260987311,-1.293949135,1.726844809,0.545943074,0.155072322,0.293144477,0.454758684
0.820210761,1.342891095,0.077647011,-0.499482163,1.022930943,-0.355685281,0.739119671,0.900138931,-0.679518437,-0.806547753,0.997612377,0.554196255,0.310705844,0.251227927,0.207898026
-0.751190296,0.261025804,0.44770721,1.819366362,0.828123576,-1.795075548,0.757956783,-0.38271172,-1.201029852,-0.414510824,0.015078507,-1.052972773,-0.243848193,0.106618554,0.104483359
0.628228142,1.115043707,-0.09285992,-0.325906293,1.063165381,0.080851338,0.943899164,2.081590174,-1.496751099,-1.162673857,-0.748792301,0.400533244,0.080008137,0.541508466,-0.051295275
-0.217657727,1.042774134,0.943298255,1.245210236,1.093730483,-1.486601454,-0.706675758,-0.3448929,-1.511836058,1.107886723,0.518924578,-1.113290227,0.237844971,-0.219474796,-0.149491913
0.006128614,1.608573244,-0.594695071,0.69865306,0.201563605,-0.681943356,0.255949105,1.953857583,-1.567646884,0.992851665,-1.30898057,-0.686478336,-0.111912214,0.615001036,-0.490151271
-0.130560515,1.614846542,0.214190185,0.626622658,1.841922129,-0.140647111,-0.92222636,1.793361381,-1.39941265,1.384629128,1.113300993,0.346208413,0.279432698,0.809800002,0.315453136
0.817073481,0.904982119,0.201141327,0.446037722,0.919270292,0.384108866,-1.849921756,3.131633896,-1.22825955,-0.054851869,1.289809761,1.171738622,-0.14142039,-0.057399769,0.553129607
0.741379187,1.08750434,0.645226072,0.842241525,-2.725194105,1.376755981,1.233042766,0.652572275,-1.269246153,2.283707541,-1.026895882,1.821895605,0.253097726,0.642708673,0.686567803
0.516260097,1.464157905,0.034201397,-0.917553662,-1.436210139,0.305629299,-0.313304319,0.727688522,-1.447914687,0.669624949,-1.972446439,0.384144091,-0.138741025,0.437952869,0.088628822
0.889947194,1.625396903,0.007010525,0.617673931,2.373730706,1.278248747,-1.870621011,-0.297571599,-1.255938695,0.08806272,-0.868162371,1.30934228,0.512997168,0.441378349,0.019390255
0.586164988,0.829769589,-0.434060246,-1.595148757,-0.212903079,1.398759699,2.458142065,2.34658774,-1.200080735,-1.598904314,-0.566429761,1.757510391,-0.495044524,-0.059555142,0.200795869
-0.434071388,1.729757591,-0.364092082,0.045798537,2.202432082,-0.782717005,-0.555582668,-3.13842665,-1.041704254,0.456048846,2.056408801,0.121099523,0.339956446,0.410810333,0.018987003
0.462729983,1.154925556,0.427223925,1.501764336,0.004005559,-0.984215633,1.027968332,1.234466622,-1.480168825,1.184913912,-0.584962512,-0.511218695,-0.181962727,0.073388445,-0.293323416
0.346563307,1.129176209,-0.179536751,-0.66593351,-0.881195483,1.018705531,0.560526426,-0.803116503,-1.04538001,-0.552141452,0.344094528,0.949676898,0.14532632,0.825933044,-0.253531145
0.498986152,1.116106254,0.242115859,-0.374681075,-1.346858791,-0.338174357,-2.721230488,3.071577753,-0.844342965,0.049228132,-0.82697398,-0.531972999,-0.147899708,0.332369449,0.550429032
0.988673636,1.530517479,0.279045573,0.117258744,-2.820528331,0.939698802,1.029788541,-1.430851421,-1.263315979,0.093803902,-2.626831708,0.784932798,0.559100229,0.088008403,-0.023347077
0.238562361,0.828831338,-0.170349528,-0.324630556,2.254141454,-0.467486163,-1.097173765,1.546261421,-1.186176312,1.652581921,1.040036911,-0.327510271,0.249089789,0.325470041,0.076349043
-0.532806877,1.115542782,0.626127626,-1.114592181,1.046828329,1.012134478,1.379313428,-0.66445092,-1.093364193,-1.147997632,1.180186796,0.508743451,-0.282643584,0.313829726,0.046403305
0.02747405,0.32725495,-0.445649535,-0.212576817,-1.15900982,-0.481537101,-2.794904957,-1.79736474,-1.379143829,-0.85490379,-0.634836922,-0.272884699,0.320655781,-0.536486744,-0.026689477
0.063948128,0.047192492,0.244143418,0.172289928,-0.564447813,1.069316655,-2.197443029,-2.533606749,-1.487593971,1.296819491,-0.493029144,0.519141463,0.056099575,0.253595399,0.243589748
0.075869949,1.432961458,0.339278761,-0.980290105,0.001189774,1.208588895,1.334601152,-2.012049647,-1.136601036,-0.523825983,1.166412447,1.222197067,0.180977672,-0.560225077,-0.211298326
0.442314466,0.819117634,-0.063767259,-0.946879603,-0.090210554,0.013165796,2.830206365,-0.952013077,-0.994346981,-2.118902763,-0.341485549,0.559669945,0.249670392,-0.059289713,-0.243786299
-0.406761656,0.798851189,0.398741899,0.272779619,-0.746407448,0.445892325,-1.504322024,0.205214349,-1.258924472,-0.484990456,-0.714730714,0.218463224,-0.147091106,0.480189602,-0.12264114
0.37947251,1.480035245,0.151789141,-3.35359659,1.574655371,0.127092666,2.649722621,-1.898836823,-1.127277173,-3.31581464,0.825178945,1.18176797,0.227326024,-0.008024417,0.244199765
0.686822567,0.697868201,-0.378069049,1.783547532,1.258661275,0.712855083,0.482005371,0.411586485,-1.102350286,2.127316692,0.39567052,-0.174877262,0.212124969,0.044700762,-0.003276668
-0.085736638,1.608002703,0.893686954,1.086307476,0.794926976,0.997892975,2.34922315,-0.241600424,-1.431665584,1.048739507,-0.092747423,1.722586531,-0.075909448,-0.545988179,0.044936417
0.46303322,1.478302197,0.043977015,-2.777089983,0.865620338,0.91587107,-2.025711391,1.804655441,-1.315210532,-2.777720262,-0.348164554,1.512492742,0.30777956,-0.018634268,-0.131836514
0.203720234,0.497305403,0.027072129,0.132069709,0.008836488,-0.825715749,0.01798255,-2.989909826,-1.014162581,0.928435056,0.157587182,-1.289180587,0.249504828,0.240529761,0.276831981
0.737318521,1.593324188,0.09320126,1.613090677,-1.348134785,-0.033089999,1.656983216,-2.550099004,-1.244154806,2.571789386,-0.193765072,0.607497163,0.669591566,0.831306958,0.37137743
0.307514466,1.610631351,-0.01942663,-2.664555667,-1.53896147,0.366880181,-0.499428683,-2.517814408,-1.396738516,-2.840281827,-1.754534839,0.78383706,0.273499531,0.51546843,0.164968909
0.347745675,0.551579278,-0.068858478,-0.590931743,0.009848446,0.182643268,-2.942568682,2.3697379,-0.630296862,-1.151589413,0.759858757,-0.983783267,-0.166782158,-0.174853898,0.341164004
-0.030817776,1.750965718,0.067452071,-1.775210345,-1.726595101,1.307221781,1.490179641,-0.631523561,-1.327942186,-0.526677597,0.34199954,1.448200313,0.16011688,0.867332178,0.119778934
-0.019601997,1.068905996,0.674024276,-0.562427264,0.568319142,0.854954835,-0.679883792,-2.941218449,-1.154545106,-1.428458447,0.403219084,1.208390985,-0.241147913,-0.225032309,-0.851862771
-0.037831004,1.0894945,0.113192306,0.045611696,-0.985485202,-1.218048454,2.708922106,1.814597733,-1.271583692,0.905065258,-0.249851741,-0.22970106,0.069996115,0.480557225,-0.031927684
0.599140082,0.961972807,-0.103125029,-2.666927476,-0.020177666,0.267101631,-1.016440084,2.402783517,-1.150641089,-2.129599829,-0.61421572,-0.035041254,0.270640377,0.342631093,0.454537669
-0.14681447,1.399657483,0.179336559,-2.091055828,-0.924388617,0.692232792,-0.144902907,-1.186871707,-1.561055451,-2.838697813,-0.170636677,0.051967542,-0.041856151,-0.481872372,0.061551485
0.150460083,1.04645885,0.342822901,0.335613046,-1.047876063,-0.20245156,-0.600022476,-1.400163267,-0.6141527,0.731028549,-0.31254837,0.514618843,-0.158405447,0.145747261,0.460203444
-0.35256095,1.00510397,-0.230984574,2.660392915,-1.503429424,-2.256944536,1.787082868,-0.558361465,-1.54378866,2.798562338,-0.543909033,-1.36569902,-0.361890924,0.336775458,-0.507448395
0.56998315,0.21937878,0.143289975,-1.339049418,0.479951755,1.027365743,0.719418219,-1.79406267,-0.398897323,-1.396634743,1.610193123,0.689737459,0.399771305,0.785537313,0.327123352
0.076236015,-0.028002444,0.447487676,-0.338117743,2.523196786,-0.548442814,3.064051838,-2.011117402,-0.212930779,-0.395419398,-0.373661259,-0.530529064,0.089611251,-0.036579643,-0.065433049
0.316555009,0.891208281,0.059812088,0.310364826,0.218457776,0.462324172,2.473402938,2.140732494,-1.317045761,0.599520146,-0.414048462,0.252908196,0.267706642,-0.367842031,0.063179563
-0.091882398,1.530012837,0.175121175,-0.473584657,2.147192434,-0.440480831,-2.689662029,2.475660696,-1.567317388,-0.06718921,1.27635298,-0.474913452,-0.09326326,0.153284675,0.028801178
-0.009270245,0.667928904,-0.216197299,-0.465315458,0.178835998,-0.764143913,2.362046264,0.570794372,-1.36776544,-0.048038245,0.847254789,-0.488595211,-0.243208034,-0.070089158,0.17929895
-0.259620931,0.570232961,-0.517786678,-2.687572646,1.462804245,0.953678305,1.949570039,-1.599607562,-1.227562023,-2.370529384,1.551027753,0.803132954,-0.296055522,-0.507167101,-0.531702366
0.630485934,0.147627435,0.238539019,2.341122467,1.446166812,-0.267808827,3.013875366,-2.957802107,-0.693282207,2.925863417,0.242823187,0.076996251,0.509016233,-0.55271091,0.045696681
0.346964896,0.436492571,0.236128443,-2.375119646,0.230913297,0.111315513,2.63018573,0.101256401,-0.95830686,-1.953950278,-1.204005771,0.284983148,-0.002208015,0.279625955,-0.089080226
0.292903508,1.986963287,0.581842138,-1.857531953,-0.791229533,0.929573847,-1.170057802,-2.335215488,-1.349132635,-2.466730798,-1.058125725,0.648069017,0.591453169,0.163592313,0.094074974
0.636857677,0.675801861,0.092323568,1.075283408,-2.571791488,-0.392061435,-1.374122682,1.679184089,-1.2205277,-0.008599573,-0.82309393,0.000960879,0.841731499,0.112074173,0.663838603
-0.17389779,1.46717022,-0.424024422,-0.916423478,0.272240336,0.692146963,-0.548464831,0.680702811,-1.173405538,0.023788368,1.923073644,0.738472362,-0.32285432,0.637505976,-0.020910809
-0.437482989,0.574569401,-0.002533956,-1.547631888,1.104226536,0.853332646,3.121454965,-2.64104639,-1.475877362,-1.449776986,0.753516749,0.779759412,0.083241434,0.204902175,0.37407669
0.761117038,0.914678243,0.087792811,1.472863309,-1.37320298,0.088155514,-0.204551764,3.011677834,-0.901925901,1.338819859,-0.764740226,0.17852763,0.110186141,0.130710312,0.004495363
0.369007968,1.104281217,-0.207113948,-1.600490188,0.143411509,0.148944514,1.547080266,-0.980866687,-1.009953058,-1.986031036,-0.392155559,0.020661591,0.376688363,-0.004290715,-0.063445376
0.391852604,0.688840448,0.050169996,0.000299491,-3.069968167,0.75953505,-2.45290121,0.339041908,-1.390887606,0.687709522,-3.001227749,0.773714377,0.423817991,-0.022672052,-0.033695039
0.10622617,1.360446041,0.465730853,1.753003586,-2.711552969,0.85156482,0.347873004,-0.558240481,-1.316321206,2.036063087,-1.576029358,-0.006672472,0.37161836,0.47570981,0.554770019
-0.125048602,1.828758179,-0.092049224,2.716768656,-0.702670681,-0.652485298,1.373904763,-0.143324193,-1.556050436,1.981100766,-1.683277573,-0.319750793,-0.16918804,-0.237916419,-0.388085531
-0.439424471,0.553963704,0.605139441,0.919678337,-3.06621113,0.966589731,-0.949316636,0.63121386,-1.531006231,-0.056276811,-0.636051426,0.516709959,0.285721983,0.834514136,0.388741979
-0.037157723,0.306678677,-0.297254007,1.132126996,1.898522935,-0.993385714,1.073049479,-1.437796031,-1.252169222,0.640568343,0.451558065,-0.700598838,-0.055094152,0.114036531,-0.200230732
0.101041531,1.067149982,0.594361303,-2.896619704,-0.149056082,-0.175872423,0.426110268,0.728951331,-1.287703382,-2.521536497,0.170171355,0.445991859,0.155777445,-0.297514688,0.065130256
-0.12138592,0.854393372,0.07041634,0.003601168,0.286503918,0.287369841,-3.031651016,0.460298151,-1.422074323,0.196266575,0.236587759,0.799823502,0.224224008,-0.175137038,-0.311523593
0.241373198,0.348520292,0.543447627,1.889186687,-1.936054825,0.019157249,2.496868761,-0.934106691,-0.605412904,0.746863467,-2.103657613,1.365153391,0.490711285,-0.074923288,-0.376693432
0.146539882,1.373859464,0.690651431,-0.415822624,-0.690739893,1.338288466,1.956629533,-2.946319218,-1.427278617,0.231553022,0.004032088,0.453232511,0.164570948,-0.032948674,0.180098253
0.351528555,1.273810155,0.280261299,1.117179913,0.578273804,0.150889714,-3.084227789,1.732701027,-1.225507247,2.346311743,-0.162910392,-0.357558393,0.651697386,-0.449490641,0.393427183
-0.626263551,0.78351472,0.072922764,-1.064130287,-1.270223077,-0.029916353,-0.479039905,2.348898076,-1.329895682,-0.052430344,-1.644822074,-0.771355753,-0.865581101,-0.528799525,0.139271254
-0.475123762,0.55108109,0.25269622,0.832397636,-2.852622557,0.190194914,1.125166421,2.203084307,-1.549355761,0.854289235,-1.60331187,0.23128076,-0.183453469,-0.518497211,0.02373251
0.270438335,1.257917476,0.318102216,3.196114148,0.250434811,0.699862487,0.512393374,-2.301934348,-1.419921717,2.07149036,-0.817009044,1.512932206,0.28674705,0.372038389,0.461587259
0.083809446,0.462819687,0.699085136,1.174745196,0.556814366,0.420606907,-1.036989166,-0.783370492,-0.74532473,-0.317137337,0.590622265,0.039998403,-0.090259229,-0.384069754,0.07132759
0.092545656,1.005457922,-0.166912918,0.897533307,1.943257301,0.227779852,-0.896170746,2.561625894,-1.421918863,0.606617896,2.871382414,-0.592333292,-0.077182604,0.134544141,-0.196089002
-0.079187314,0.3870682,0.238181218,-0.987626266,1.586903372,-0.018090147,-0.966283964,-2.757619144,-0.954780986,0.21878115,2.079496856,0.201252087,0.140930154,-0.161601123,0.27696774
-0.219640707,0.339991785,0.051671019,2.356804247,0.252452347,-0.191194753,-2.274380872,-2.455825825,-1.157398729,2.49225556,0.713826767,-0.601499707,0.16642277,-1.033742512,-0.053677574
-0.199320622,1.112620118,0.011489244,1.100536565,0.985471454,0.88477709,1.6352609,-0.710159085,-1.314564905,1.413997805,0.982195003,1.396188163,0.029970593,-0.644108245,0.202589666
0.250778047,1.289736349,0.180118819,1.369257883,-1.036371136,-0.667357452,1.501214865,-1.918177839,-1.096585475,1.081548601,-1.739995167,-0.753787959,-0.165004935,0.170137189,0.08364114
-0.056647628,0.740358814,0.115908524,0.233636216,1.330649749,0.589177759,0.590732933,-1.360553334,-1.288089986,1.87087068,2.098794845,-0.023411489,0.176458496,-0.008743369,0.355693964
0.64311535,0.496842375,-0.257571424,-1.640309382,1.497540447,-1.246723141,-1.123280745,0.621241774,-0.854045078,-0.2538306,1.05389269,-0.77790471,0.293724371,-0.029034316,0.410006137
0.515617022,0.837668541,-0.225645096,0.986384235,-0.292850522,-0.221833907,-1.080910424,-0.847894731,-0.90099131,1.655353022,-0.580554589,-0.719518893,0.34207241,-0.08920256,0.445179146
-0.01114798,1.388707361,0.078680944,-0.616013323,-0.327306863,0.14644557,1.334307227,0.042030473,-1.539153422,-0.629241785,-1.009927408,-0.274997851,-0.184649445,0.27456142,-0.433593572
-0.29535723,0.630574406,-0.086704617,-1.076769142,-0.091003523,1.685099708,-1.488426887,1.495028555,-1.490293605,-0.48473459,0.656249587,0.447327576,-0.520647825,-0.073188058,-0.763909445
0.258101254,0.655103327,-0.821207853,0.685318001,-1.452866895,0.136508908,-2.126907623,2.206690511,-1.05195972,0.154037151,-1.669578239,-0.711985352,0.29637053,0.05140708,-0.190487487
0.092329493,0.629507701,0.005685197,-1.631364571,2.01417025,-0.040623663,-0.622513393,-2.156249031,-1.04583092,-2.895761649,1.285063832,-0.700057347,0.619275804,0.009686748,0.138286977
-0.121278704,1.270801021,0.205798979,-1.824681605,-0.331205979,1.305912712,-0.698649845,-0.561744763,-1.076515309,-2.100401343,0.147645443,1.469005769,0.510764709,-0.04517617,0.385472963
-0.46878911,0.042282066,-0.12614226,-0.911198158,1.107377049,-0.43310936,2.292372958,-3.078558411,-1.282257412,-1.862161444,0.522408053,-0.230778308,-0.12728537,0.098508769,-0.28232753
0.024624379,1.118892145,-0.961972224,-0.833951571,-1.240692474,-0.648046405,-0.758605412,-2.923265251,-1.339451968,-0.547764606,-0.417352827,0.444447395,0.631395349,0.479607019,-0.360372049
-0.223261366,0.785587452,-0.091766308,1.458739656,-0.401198198,0.326808295,-0.839789668,-2.370781431,-1.461512108,1.03246951,1.009853056,0.342886286,0.270666626,0.362471213,0.011886537
0.534889743,1.21974331,0.220458898,2.959550702,-1.83378605,0.591727674,2.156757486,-1.726251421,-1.056083291,1.815255216,-1.47822977,-0.004907464,0.784759195,0.600014729,-0.171700896
0.407867555,1.281381689,-0.455401512,0.198660579,-0.53597074,0.064560171,2.969345212,-1.042300717,-0.988481645,0.232147388,-0.279176685,0.481331111,0.101312356,0.960631418,-0.36712571
-0.08121103,0.430702391,0.369903707,0.710155002,-2.022869124,-0.299359866,-0.115182784,-0.851513418,-1.312134696,0.262744116,-2.474984684,0.649756843,-0.073423695,-1.163908894,0.57463845
0.401118789,0.513502975,-0.406672702,0.503968293,-2.521718931,0.380542269,3.094816549,-2.734239987,-1.128109211,0.436643057,-1.605161016,0.890821546,0.512383756,-0.027603513,0.298413686
0.595884794,1.458650422,-0.406847241,-1.152578487,0.979077832,0.030732204,0.303624905,1.010760478,-1.509621911,-0.015939347,0.700084136,0.201118981,0.250193077,0.596937045,-0.202813474
-0.123899535,0.581326231,0.423601005,0.689534661,0.500378526,0.176629146,-2.160526423,1.782229716,-1.382293835,0.805937254,-0.660127815,-0.26741345,-0.320646786,-0.566343093,0.051710666
0.670639963,1.607458632,0.416336686,-1.804288889,0.970059077,1.554053771,-1.662256443,1.284851035,-0.997167593,-0.864406311,-0.321758453,0.9897996,0.403939429,0.592590046,0.508948617
0.288486217,0.536167915,-0.330943287,1.194273049,-0.616607098,0.307917501,-1.039505451,2.650998913,-1.140680326,2.41111287,0.195467913,-0.241876506,-0.042831339,0.196510322,-0.56433681
-0.148799535,0.646843035,0.002785518,-0.957030593,0.119465048,-0.046381531,-3.016590203,-0.44593164,-1.251066088,-0.361060185,1.214345985,-0.915275416,-0.247351996,0.34601032,-0.325024941
-0.028465589,0.169496589,0.384907735,-0.254564799,-0.317866172,-0.032594351,-1.394556238,-1.939066118,-0.094106794,-0.239848701,0.736956053,-0.527330302,0.199538823,0.44222438,0.33451131
0.531435854,1.12030601,-0.439662135,-0.098316984,2.640859032,-0.971831932,2.326785405,0.511560154,-1.110154363,0.028864734,-0.501040214,-0.776982267,0.163677415,-0.362363035,-0.384418781
0.240184697,0.09741084,-0.254322854,-0.063359582,-0.609672103,0.169624958,-1.916809468,-2.238404234,-0.455395002,0.514864845,-0.11317277,-0.724328461,0.192948783,-1.520223014,-0.293862162
0.238659398,0.371429544,0.061661762,0.985908964,-2.753721115,-0.480700503,2.915122195,2.518998742,-0.86699076,0.893042634,-3.425078447,0.086467315,0.013679438,-0.016833445,0.006959966
0.44493115,1.198648764,0.474782382,-1.217863027,0.812583732,-0.2828296,-0.643062553,2.147547781,-1.128397721,-1.704680702,0.379503488,0.082566663,0.437823471,0.15657311,0.019537665
0.371808809,1.505556051,-0.226409032,0.128172888,1.314318941,-0.471949712,-2.868641891,0.358517144,-1.111538386,-0.178366694,-0.684275608,-0.613180439,-0.069216754,-0.350122693,-0.393816699
0.387978752,0.852998458,0.415679453,0.850244789,-1.17810126,-0.350680861,-2.963476264,2.011387196,-1.342555662,-0.376127289,-1.008475218,-0.185540628,0.262268029,0.236572643,0.549020508
0.411210057,1.687140082,-0.627074496,-0.505748266,-0.968691862,-0.045583069,-2.364211112,2.549159247,-1.466839252,0.292856624,-2.277930688,0.294930173,0.19453608,-0.176816751,0.06101384
0.402419575,0.49280742,-0.140570515,0.032428594,0.08558575,0.704159197,2.177262877,-1.393123962,-1.406800623,-0.957934956,-0.448869877,1.507046325,0.293906996,-0.60980155,0.042471169
0.838413804,1.02912851,0.522091944,-0.068748877,1.965663913,-0.133725874,2.470577436,-2.237545335,-1.492827832,-0.216604505,0.377695117,0.597151024,0.490362629,0.209847473,-0.409517409
0.088587519,0.257072153,0.091823772,-1.367103948,-0.152278941,0.653436899,2.852796051,-1.751004627,-1.263275284,-1.768485028,1.290918856,-0.567172428,0.30549297,0.275954152,0.092450801
0.119206549,1.507333145,0.424277361,1.12746227,-0.078404973,0.533575942,-0.688156004,-2.124284075,-1.192080413,0.866782416,0.056992366,0.018702168,-0.030478579,0.033028837,0.309899909
-0.319339465,0.662557473,-0.071495841,0.036405173,-0.778648033,0.00335819,2.094295109,-2.941161102,-1.173806613,1.188362081,-2.168134638,0.488373253,0.009863392,-0.109660007,-0.528763146
-0.512784715,1.109482662,-0.338560529,-0.778445057,0.148721331,0.818800085,1.706169727,-1.694783178,-1.488665756,-0.834458159,-1.226687321,0.566650745,-0.204740607,-0.339595433,-0.2529547
