loggingTime,loggingSample,locationTimestamp_since1970,locationLatitude,locationLongitude,locationAltitude,locationSpeed,locationSpeedAccuracy,locationCourse,locationCourseAccuracy,locationVerticalAccuracy,locationHorizontalAccuracy,locationFloor,locationHeadingTimestamp_since1970,locationHeadingX,locationHeadingY,locationHeadingZ,locationTrueHeading,locationMagneticHeading,locationHeadingAccuracy,accelerometerTimestamp_sinceReboot,accelerometerAccelerationX,accelerometerAccelerationY,accelerometerAccelerationZ,gyroTimestamp_sinceReboot,gyroRotationX,gyroRotationY,gyroRotationZ,magnetometerTimestamp_sinceReboot,magnetometerX,magnetometerY,magnetometerZ,motionTimestamp_sinceReboot,motionYaw,motionRoll,motionPitch,motionRotationRateX,motionRotationRateY,motionRotationRateZ,motionUserAccelerationX,motionUserAccelerationY,motionUserAccelerationZ,motionAttitudeReferenceFrame,motionQuaternionX,motionQuaternionY,motionQuaternionZ,motionQuaternionW,motionGravityX,motionGravityY,motionGravityZ,motionMagneticFieldX,motionMagneticFieldY,motionMagneticFieldZ,motionHeading,motionMagneticFieldCalibrationAccuracy,activityTimestamp_sinceReboot,activity,activityActivityConfidence,activityActivityStartDate,pedometerStartDate,pedometerNumberofSteps,pedometerAverageActivePace,pedometerCurrentPace,pedometerCurrentCadence,pedometerDistance,pedometerFloorAscended,pedometerFloorDescended,pedometerEndDate,altimeterTimestamp_sinceReboot,altimeterReset,altimeterRelativeAltitude,altimeterPressure,IP_Timestamp_since1970,IP_en0,IP_pdp_ip0,deviceID,deviceOrientationTimeStamp_since1970,deviceOrientation,batteryTimeStamp_since1970,batteryState,batteryLevel,label
1676782831.143295,1,1676782830.390885,34.04867218582972,-117.8139260803996,216.4357,0.1616617,0.5787297,310.1003659340383,77.97750780409244,10.01197028272048,10.02341396498056,-9999,1676782831.133548,-18.29003143310547,-33.99516296386719,-27.39227294921875,190.4110870361328,178.9279174804688,17.76794815063477,1739084.17271675,-0.10650634765625,-0.397308349609375,-0.8524932861328125,1739084.16773775,0.3401208221912384,0.5057827830314636,0.06052938848733902,1739084.16157375,-145.436279296875,35.36166381835938,-321.8023376464844,1739084.16773775,0.05270737923912041,-0.1234841539179752,0.427953129693031,0.3340671062469482,0.4937484264373779,0.05751212313771248,-0.01328828930854797,0.00987321138381958,0.09554684162139893,2,0.2134580638272562,-0.05468990932398278,0.01260273396261974,0.9753388387816283,-0.1120626926422119,-0.4150094091892242,-0.9028893113136292,-18.29003143310547,-33.99516296386719,-27.39227294921875,-1,2,1739080.303064542,4,1,1676782827.265931,0,0,0,0,0,0,0,0,0,1739081.575215,0,0.07926941,99.0821,0,0,0,0,0,1,1676782831.118168,1,0.82,1
1676782831.172657,2,1676782830.390885,34.04867218582972,-117.8139260803996,216.4357,0.1616617,0.5787297,310.1003659340383,77.97750780409244,10.01197028272048,10.02341396498056,-9999,1676782831.153205,-18.36258697509766,-33.99363708496094,-27.02349853515625,190.2360382080078,178.7528686523438,17.76805686950684,1739084.20632175,-0.0897674560546875,-0.42706298828125,-0.9676055908203125,1739084.20134375,0.2844634056091309,0.161799818277359,0.01972976326942444,1739084.19159275,-145.2148132324219,35.354736328125,-321.6271057128906,1739084.16773775,0.05270737923912041,-0.1234841539179752,0.427953129693031,0.3340671062469482,0.4937484264373779,0.05751212313771248,-0.01328828930854797,0.00987321138381958,0.09554684162139893,2,0.2134580638272562,-0.05468990932398278,0.01260273396261974,0.9753388387816283,-0.1120626926422119,-0.4150094091892242,-0.9028893113136292,-18.29003143310547,-33.99516296386719,-27.39227294921875,-1,2,1739080.303064542,4,1,1676782827.265931,0,0,0,0,0,0,0,0,0,1739082.575797,0,0.1030579,99.0818,1676782831.147426,0,182416158,0,0,1,1676782831.118168,1,0.82,1
1676782831.202642,3,1676782830.390885,34.04867218582972,-117.8139260803996,216.4357,0.1616617,0.5787297,310.1003659340383,77.97750780409244,10.01197028272048,10.02341396498056,-9999,1676782831.193091,-17.54752349853516,-34.20030975341797,-26.95025634765625,190.1749420166016,178.6917724609375,17.76826667785645,1739084.23992875,-0.080322265625,-0.439208984375,-0.948577880859375,1739084.23495075,-0.1876348704099655,-0.2548344135284424,-0.02558152563869953,1739084.22161175,-144.6235504150391,35.17604064941406,-321.3855895996094,1739084.22748175,0.05554325823520191,-0.1134928326149956,0.4429365235804488,-0.08475334942340851,-0.192054882645607,-0.03128714114427567,0.02250170707702637,-0.003107249736785889,-0.07005846500396729,2,0.2207605401939918,-0.04921962119612508,0.01459269352261006,0.9739760164679269,-0.1023204401135445,-0.4285944402217865,-0.8976844549179077,-17.54752349853516,-34.20030975341797,-26.95025634765625,-1,2,1739080.303064542,4,1,1676782827.265931,0,0,0,0,0,0,0,0,0,1739082.575797,0,0.1030579,99.0818,1676782831.147426,0,182416158,0,0,1,1676782831.118168,1,0.82,1
1676782831.237458,4,1676782830.390885,34.04867218582972,-117.8139260803996,216.4357,0.1616617,0.5787297,310.1003659340383,77.97750780409244,10.01197028272048,10.02341396498056,-9999,1676782831.232846,-18.17221832275391,-34.13112258911133,-27.10162353515625,190.3492431640625,178.8660736083984,17.76848793029785,1739084.27353475,-0.1049041748046875,-0.442352294921875,-0.8740692138671875,1739084.26855575,-0.4343642294406891,-0.2383736819028854,0.05546485632658005,1739084.25162575,-145.3928985595703,35.44677734375,-320.9132080078125,1739084.22748175,0.05554325823520191,-0.1134928326149956,0.4429365235804488,-0.08475334942340851,-0.192054882645607,-0.03128714114427567,0.02250170707702637,-0.003107249736785889,-0.07005846500396729,2,0.2207605401939918,-0.04921962119612508,0.01459269352261006,0.9739760164679269,-0.1023204401135445,-0.4285944402217865,-0.8976844549179077,-17.54752349853516,-34.20030975341797,-26.95025634765625,-1,2,1739080.303064542,4,1,1676782827.265931,0,0,0,0,0,0,0,0,0,1739082.575797,0,0.1030579,99.0818,1676782831.147426,0,182416158,0,0,1,1676782831.118168,1,0.82,1
1676782831.27674,5,1676782830.390885,34.04867218582972,-117.8139260803996,216.4357,0.1616617,0.5787297,310.1003659340383,77.97750780409244,10.01197028272048,10.02341396498056,-9999,1676782831.272863,-18.31433868408203,-33.87798309326172,-27.10372924804688,190.3633728027344,178.8802032470703,17.76870727539062,1739084.30714075,-0.128997802734375,-0.429443359375,-0.872802734375,1739084.30216175,-0.125445544719696,-0.02215510234236717,0.05999596044421196,1739084.28163575,-145.4573822021484,35.51240539550781,-321.8297729492188,1739084.28722575,0.05391902412459434,-0.128412439579757,0.4226317212299583,-0.2941255569458008,-0.1516923606395721,0.02235178463160992,0.02296586334705353,-0.006631851196289062,0.04967570304870605,2,0.2109295185347085,-0.05706974697052633,0.01284941776117343,0.9757492992688043,-0.1167921721935272,-0.4101620316505432,-0.9045035839080811,-18.27796173095703,-33.91023254394531,-27.37222290039062,-1,2,1739080.303064542,4,1,1676782827.265931,0,0,0,0,0,0,0,0,0,1739082.575797,0,0.1030579,99.0818,1676782831.147426,0,182416158,0,0,1,1676782831.118168,1,0.82,1
1676782831.314022,6,1676782830.390885,34.04867218582972,-117.8139260803996,216.4357,0.1616617,0.5787297,310.1003659340383,77.97750780409244,10.01197028272048,10.02341396498056,-9999,1676782831.312585,-18.29375457763672,-33.81571197509766,-27.42849731445312,190.3136444091797,178.8304748535156,17.76891899108887,1739084.34074575,-0.0845489501953125,-0.4140625,-0.8838043212890625,1739084.33576775,0.1616706550121307,-0.0126729179173708,-0.004538292996585369,1739084.34166975,-145.4373474121094,35.61293029785156,-321.8292236328125,1739084.28722575,0.05391902412459434,-0.128412439579757,0.4226317212299583,-0.2941255569458008,-0.1516923606395721,0.02235178463160992,0.02296586334705353,-0.006631851196289062,0.04967570304870605,2,0.2109295185347085,-0.05706974697052633,0.01284941776117343,0.9757492992688043,-0.1167921721935272,-0.4101620316505432,-0.9045035839080811,-18.27796173095703,-33.91023254394531,-27.37222290039062,-1,2,1739080.303064542,4,1,1676782827.265931,0,0,0,0,0,0,0,0,0,1739082.575797,0,0.1030579,99.0818,1676782831.147426,0,182416158,0,0,1,1676782831.118168,1,0.82,1
1676782831.336998,7,1676782830.390885,34.04867218582972,-117.8139260803996,216.4357,0.1616617,0.5787297,310.1003659340383,77.97750780409244,10.01197028272048,10.02341396498056,-9999,1676782831.332408,-18.19191741943359,-34.10217666625977,-27.25946044921875,190.2554168701172,178.7722473144531,17.76901435852051,1739084.37435275,-0.1217193603515625,-0.4339599609375,-0.89691162109375,1739084.36937475,0.04954757913947105,0.04762956872582436,0.09355178475379944,1739084.37168875,-145.5272521972656,35.49839782714844,-321.7260437011719,1739084.34696975,0.05562705109597924,-0.1309222085404336,0.4220584899434741,0.157518208026886,-0.01512332819402218,0.007719033397734165,0.02343520522117615,-0.01510453224182129,0.01416653394699097,2,0.2107157461305447,-0.0581256866854423,0.01343794487792183,0.9757252585860592,-0.1190925762057304,-0.4096391797065735,-0.9044405817985535,-18.29375457763672,-33.81571197509766,-27.42849731445312,-1,2,1739080.303064542,4,1,1676782827.265931,0,0,0,0,0,0,0,0,0,1739082.575797,0,0.1030579,99.0818,1676782831.147426,0,182416158,0,0,1,1676782831.118168,1,0.82,1
1676782831.371974,8,1676782830.390885,34.04867218582972,-117.8139260803996,216.4357,0.1616617,0.5787297,310.1003659340383,77.97750780409244,10.01197028272048,10.02341396498056,-9999,1676782831.352219,-18.39589691162109,-33.96358108520508,-27.01156616210938,190.1213989257812,178.6382293701172,17.76907348632812,1739084.40795875,-0.1157379150390625,-0.41015625,-0.9290771484375,1739084.40297975,-0.1290831565856934,0.05909634381532669,0.1241949200630188,1739084.40170675,-145.7189025878906,35.55471801757812,-321.7637634277344,1739084.34696975,0.05562705109597924,-0.1309222085404336,0.4220584899434741,0.157518208026886,-0.01512332819402218,0.007719033397734165,0.02343520522117615,-0.01510453224182129,0.01416653394699097,2,0.2107157461305447,-0.0581256866854423,0.01343794487792183,0.9757252585860592,-0.1190925762057304,-0.4096391797065735,-0.9044405817985535,-18.29375457763672,-33.81571197509766,-27.42849731445312,-1,2,1739080.303064542,4,1,1676782827.265931,0,0,0,0,0,0,0,0,0,1739082.575797,0,0.1030579,99.0818,1676782831.147426,0,182416158,0,0,1,1676782831.118168,1,0.82,1
1676782831.406677,9,1676782830.390885,34.04867218582972,-117.8139260803996,216.4357,0.1616617,0.5787297,310.1003659340383,77.97750780409244,10.01197028272048,10.02341396498056,-9999,1676782831.392204,-18.68424224853516,-33.53821182250977,-27.3895263671875,189.8606262207031,178.3774566650391,17.76909446716309,1739084.44156375,-0.098358154296875,-0.419097900390625,-0.935028076171875,1739084.43658575,-0.1262298375368118,-0.1585784554481506,0.1642453968524933,1739084.43172375,-145.8627319335938,35.61367797851562,-322.1380004882812,1739084.40671375,0.06156762087751582,-0.1310232668400272,0.4215014856806922,-0.1442631930112839,0.02574488893151283,0.1149846464395523,-0.00242932140827179,-0.00377190113067627,-0.02141654491424561,2,0.2106168007283265,-0.05756102679379406,0.01634501675134148,0.9757356805035517,-0.11921376734972,-0.4091309905052185,-0.9046545624732971,-18.47832489013672,-33.90285873413086,-27.25692749023438,-1,2,1739080.303064542,4,1,1676782827.265931,0,0,0,0,0,0,0,0,0,1739082.575797,0,0.1030579,99.0818,1676782831.147426,0,182416158,0,0,1,1676782831.118168,1,0.82,1
1676782831.442124,10,1676782830.390885,34.04867218582972,-117.8139260803996,216.4357,0.1616617,0.5787297,310.1003659340383,77.97750780409244,10.01197028272048,10.02341396498056,-9999,1676782831.432007,-19.32877349853516,-33.49847030639648,-27.51596069335938,189.5793151855469,178.0961456298828,17.76914978027344,1739084.47516975,-0.1476898193359375,-0.4078369140625,-0.889892578125,1739084.47019075,-0.01497921533882618,-0.1087810769677162,0.2244235128164291,1739084.46174275,-146.6118774414062,36.04692077636719,-321.892578125,1739084.46645775,0.07037889216475694,-0.1428670869189697,0.4135664436921508,-0.03639509528875351,-0.1544452905654907,0.2109368443489075,0.01348027586936951,-0.01059797406196594,0.007697820663452148,2,0.2071198996337787,-0.06260414191436182,0.01970019043383192,0.9761115989267836,-0.130377858877182,-0.4018776416778564,-0.9063641428947449,-19.32877349853516,-33.49847030639648,-27.51596069335938,-1,2,1739080.303064542,4,1,1676782827.265931,0,0,0,0,0,0,0,0,0,1739082.575797,0,0.1030579,99.0818,1676782831.147426,0,182416158,0,0,1,1676782831.118168,1,0.82,1
1676782831.475421,11,1676782830.390885,34.04867218582972,-117.8139260803996,216.4357,0.1616617,0.5787297,310.1003659340383,77.97750780409244,10.01197028272048,10.02341396498056,-9999,1676782831.471781,-19.58512115478516,-33.16890716552734,-27.47360229492188,189.1743011474609,177.6911315917969,17.76913833618164,1739084.50877675,-0.1044769287109375,-0.3729705810546875,-0.9219207763671875,1739084.50379775,0.08984493464231491,-0.07530460506677628,0.1358356028795242,1739084.49176075,-146.7234191894531,35.95220947265625,-321.7342834472656,1739084.46645775,0.07037889216475694,-0.1428670869189697,0.4135664436921508,-0.03639509528875351,-0.1544452905654907,0.2109368443489075,0.01348027586936951,-0.01059797406196594,0.007697820663452148,2,0.2071198996337787,-0.06260414191436182,0.01970019043383192,0.9761115989267836,-0.130377858877182,-0.4018776416778564,-0.9063641428947449,-19.32877349853516,-33.49847030639648,-27.51596069335938,-1,2,1739080.303064542,4,1,1676782827.265931,0,0,0,0,0,0,0,0,0,1739082.575797,0,0.1030579,99.0818,1676782831.147426,0,182416158,0,0,1,1676782831.118168,1,0.82,1
1676782831.508772,12,1676782830.390885,34.04867218582972,-117.8139260803996,216.4357,0.1616617,0.5787297,310.1003659340383,77.97750780409244,10.01197028272048,10.02341396498056,-9999,1676782831.491814,-19.71265411376953,-33.46018218994141,-27.64505004882812,189.1775665283203,177.6943969726562,17.76914596557617,1739084.54238275,-0.0630340576171875,-0.368896484375,-0.8508758544921875,1739084.53740375,-0.1062516048550606,-0.3204011917114258,-0.1371916830539703,1739084.52178075,-146.8783721923828,36.01119995117188,-322.0274658203125,1739084.52620175,0.07970997186681045,-0.153326287213116,0.4149780785861102,-0.01556667499244213,-0.3108119070529938,-0.06299210339784622,0.08243632316589355,0.04059046506881714,-0.02444356679916382,2,0.2082214192635529,-0.06670185525826575,0.0231104253411667,0.9755309698063583,-0.1397636234760284,-0.4031698703765869,-0.9043893814086914,-19.71265411376953,-33.46018218994141,-27.64505004882812,-1,2,1739080.303064542,4,1,1676782827.265931,0,0,0,0,0,0,0,0,0,1739082.575797,0,0.1030579,99.0818,1676782831.147426,0,182416158,0,0,1,1676782831.118168,1,0.82,1
1676782831.542339,13,1676782831.341189,34.0486747927061,-117.813925004475,216.5337,0.07420031,0.1722154,139.4593796323531,80.09476291814367,9.960753217603925,9.392554747904063,-9999,1676782831.531868,-19.56194305419922,-33.0309944152832,-27.33343505859375,189.3877563476562,177.9045867919922,17.76933097839355,1739084.57598775,-0.2232513427734375,-0.423187255859375,-0.9170074462890625,1739084.57100975,-0.217805027961731,0.2204612642526627,0.08390635251998901,1739084.55179875,-146.4617919921875,36.39100646972656,-321.7466430664062,1739084.52620175,0.07970997186681045,-0.153326287213116,0.4149780785861102,-0.01556667499244213,-0.3108119070529938,-0.06299210339784622,0.08243632316589355,0.04059046506881714,-0.02444356679916382,2,0.2082214192635529,-0.06670185525826575,0.0231104253411667,0.9755309698063583,-0.1397636234760284,-0.4031698703765869,-0.9043893814086914,-19.71265411376953,-33.46018218994141,-27.64505004882812,-1,2,1739080.303064542,4,1,1676782827.265931,0,0,0,0,0,0,0,0,0,1739082.575797,0,0.1030579,99.0818,1676782831.147426,0,182416158,0,0,1,1676782831.118168,1,0.82,1
1676782831.575833,14,1676782831.341189,34.0486747927061,-117.813925004475,216.5337,0.07420031,0.1722154,139.4593796323531,80.09476291814367,9.960753217603925,9.392554747904063,-9999,1676782831.571633,-19.76403045654297,-33.16769409179688,-27.2034912109375,189.2787322998047,177.7955627441406,17.76955032348633,1739084.60959375,-0.132965087890625,-0.423614501953125,-0.9892120361328125,1739084.60461475,-0.09209610521793365,-0.3578569293022156,0.1297982037067413,1739084.61183475,-147.2103271484375,36.68148803710938,-322.3134765625,1739084.58594575,0.07705845182028336,-0.154098254687705,0.4045864684489111,-0.1355067938566208,-0.08891597390174866,0.06038365885615349,0.01319801807403564,0.01741793751716614,-0.05349594354629517,2,0.2030761016687552,-0.06763108202554002,0.02216862689742111,0.9765728759817633,-0.1410972028970718,-0.3936386406421661,-0.9083722829818726,-19.68294525146484,-33.24751663208008,-27.314453125,-1,2,1739080.303064542,4,1,1676782827.265931,0,0,0,0,0,0,0,0,0,1739082.575797,0,0.1030579,99.0818,1676782831.147426,0,182416158,0,0,1,1676782831.118168,1,0.82,1
1676782831.606012,15,1676782831.341189,34.0486747927061,-117.813925004475,216.5337,0.07420031,0.1722154,139.4593796323531,80.09476291814367,9.960753217603925,9.392554747904063,-9999,1676782831.591276,-19.82335662841797,-33.06911849975586,-27.54931640625,189.1052551269531,177.6220855712891,17.7696590423584,1739084.64320075,-0.154571533203125,-0.3820953369140625,-0.8904876708984375,1739084.63822175,0.01214428059756756,-0.139457494020462,0.226877361536026,1739084.64185275,-147.5640716552734,36.41917419433594,-321.9119262695312,1739084.58594575,0.07705845182028336,-0.154098254687705,0.4045864684489111,-0.1355067938566208,-0.08891597390174866,0.06038365885615349,0.01319801807403564,0.01741793751716614,-0.05349594354629517,2,0.2030761016687552,-0.06763108202554002,0.02216862689742111,0.9765728759817633,-0.1410972028970718,-0.3936386406421661,-0.9083722829818726,-19.68294525146484,-33.24751663208008,-27.314453125,-1,2,1739080.303064542,4,1,1676782827.265931,0,0,0,0,0,0,0,0,0,1739082.575797,0,0.1030579,99.0818,1676782831.147426,0,182416158,0,0,1,1676782831.118168,1,0.82,1
1676782831.642247,16,1676782831.341189,34.0486747927061,-117.813925004475,216.5337,0.07420031,0.1722154,139.4593796323531,80.09476291814367,9.960753217603925,9.392554747904063,-9999,1676782831.631463,-20.35572052001953,-32.97093200683594,-27.71939086914062,188.6941680908203,177.2109985351562,17.76987838745117,1739084.67680675,-0.1163177490234375,-0.36602783203125,-0.91278076171875,1739084.67182775,0.08058246225118637,-0.02439934946596622,0.08539851754903793,1739084.67187475,-147.7396545410156,36.28364562988281,-322.1634521484375,1739084.64568975,0.08748299462179135,-0.1719215116058056,0.3989198170747137,0.0428285114467144,-0.1245649755001068,0.2087209969758987,0.001866176724433899,0.007548511028289795,0.01826333999633789,2,0.200899357548682,-0.07544007426674341,0.0257073166404363,0.9763643087201189,-0.1576431542634964,-0.3884232044219971,-0.9078964591026306,-20.26758575439453,-32.98494338989258,-27.5196533203125,-1,2,1739080.303064542,4,1,1676782827.265931,0,0,0,0,0,0,0,0,0,1739082.575797,0,0.1030579,99.0818,1676782831.147426,0,182416158,0,0,1,1676782831.118168,1,0.82,1
1676782831.675839,17,1676782831.341189,34.0486747927061,-117.813925004475,216.5337,0.07420031,0.1722154,139.4593796323531,80.09476291814367,9.960753217603925,9.392554747904063,-9999,1676782831.671134,-20.59226226806641,-32.66339492797852,-27.61404418945312,188.6026611328125,177.1194915771484,17.77009963989258,1739084.71041175,-0.150909423828125,-0.3785858154296875,-0.945281982421875,1739084.70543375,-0.03805950284004211,-0.2670620679855347,0.05593117699027061,1739084.70189775,-147.7250366210938,36.83436584472656,-321.9259948730469,1739084.70543375,0.09423416514757108,-0.1811312129638808,0.4001627501695518,-0.04411613568663597,-0.2790946066379547,0.05291569605469704,0.007844895124435425,-0.006397396326065063,-0.06857198476791382,2,0.2018897042431311,-0.07921655990788015,0.02801556941240457,0.9757972441588136,-0.1659107059240341,-0.3895682394504547,-0.9059305787086487,-20.59226226806641,-32.66339492797852,-27.61404418945312,-1,2,1739080.303064542,4,1,1676782827.265931,0,0,0,0,0,0,0,0,0,1739082.575797,0,0.1030579,99.0818,1676782831.147426,0,182416158,0,0,1,1676782831.118168,1,0.82,1
1676782831.716937,18,1676782831.341189,34.0486747927061,-117.813925004475,216.5337,0.07420031,0.1722154,139.4593796323531,80.09476291814367,9.960753217603925,9.392554747904063,-9999,1676782831.710945,-20.68296051025391,-32.61327743530273,-26.77227783203125,188.9002380371094,177.4170684814453,17.77030372619629,1739084.74401775,-0.1651153564453125,-0.383453369140625,-0.8961181640625,1739084.73903975,-0.1028515473008156,-0.3136639297008514,-0.1018209010362625,1739084.73192075,-147.8937683105469,36.69651794433594,-320.7886962890625,1739084.70543375,0.09423416514757108,-0.1811312129638808,0.4001627501695518,-0.04411613568663597,-0.2790946066379547,0.05291569605469704,0.007844895124435425,-0.006397396326065063,-0.06857198476791382,2,0.2018897042431311,-0.07921655990788015,0.02801556941240457,0.9757972441588136,-0.1659107059240341,-0.3895682394504547,-0.9059305787086487,-20.59226226806641,-32.66339492797852,-27.61404418945312,-1,2,1739080.303064542,4,1,1676782827.265931,0,0,0,0,0,0,0,0,0,1739082.575797,0,0.1030579,99.0818,1676782831.147426,0,182416158,0,0,1,1676782831.118168,1,0.82,1
1676782831.742243,19,1676782831.341189,34.0486747927061,-117.813925004475,216.5337,0.07420031,0.1722154,139.4593796323531,80.09476291814367,9.960753217603925,9.392554747904063,-9999,1676782831.731126,-20.93799591064453,-32.62555313110352,-27.01123046875,189.0186614990234,177.5354919433594,17.77041435241699,1739084.77762475,-0.2193756103515625,-0.43084716796875,-0.912506103515625,1739084.77264675,-0.3372331559658051,-0.3208528459072113,0.1267126649618149,1739084.76193975,-148.1295318603516,36.81686401367188,-321.47705078125,1739084.76517775,0.08983606222247063,-0.1984778855739239,0.3935366832136366,-0.2894343733787537,-0.3475339412689209,0.06181218475103378,-0.008248582482337952,-0.03666314482688904,0.006150484085083008,2,0.1987059208555493,-0.08833093172180935,0.02446983953303689,0.9757636478829435,-0.1821048259735107,-0.3834571540355682,-0.9054272174835205,-20.93799591064453,-32.62555313110352,-27.01123046875,-1,2,1739080.303064542,4,1,1676782827.265931,0,0,0,0,0,0,0,0,0,1739082.575797,0,0.1030579,99.0818,1676782831.147426,0,182416158,0,0,1,1676782831.118168,1,0.82,1
1676782831.775523,20,1676782831.341189,34.0486747927061,-117.813925004475,216.5337,0.07420031,0.1722154,139.4593796323531,80.09476291814367,9.960753217603925,9.392554747904063,-9999,1676782831.770693,-21.85799407958984,-32.23903274536133,-26.9971923828125,188.8743743896484,177.3912048339844,17.77063751220703,1739084.811231167,-0.1829681396484375,-0.337554931640625,-0.908233642578125,1739084.806252167,-0.399848073720932,-0.4241419434547424,0.1843538582324982,1739084.79196175,-148.5382080078125,37.19046020507812,-321.1156616210938,1739084.76517775,0.08983606222247063,-0.1984778855739239,0.3935366832136366,-0.2894343733787537,-0.3475339412689209,0.06181218475103378,-0.008248582482337952,-0.03666314482688904,0.006150484085083008,2,0.1987059208555493,-0.08833093172180935,0.02446983953303689,0.9757636478829435,-0.1821048259735107,-0.3834571540355682,-0.9054272174835205,-20.93799591064453,-32.62555313110352,-27.01123046875,-1,2,1739080.303064542,4,1,1676782827.265931,0,0,0,0,0,0,0,0,0,1739082.575797,0,0.1030579,99.0818,1676782831.147426,0,182416158,0,0,1,1676782831.118168,1,0.82,1
1676782831.810063,21,1676782831.341189,34.0486747927061,-117.813925004475,216.5337,0.07420031,0.1722154,139.4593796323531,80.09476291814367,9.960753217603925,9.392554747904063,-9999,1676782831.790427,-21.92430877685547,-32.00521850585938,-27.11669921875,188.8930206298828,177.4098510742188,17.770751953125,1739084.844837167,-0.1987457275390625,-0.3351898193359375,-0.9396820068359375,1739084.839858167,-0.3897533416748047,-0.4695115685462952,-0.06125083938241005,1739084.821984167,-149.0689697265625,37.58515930175781,-321.5529174804688,1739084.824922167,0.0942841455403563,-0.223881424046301,0.3689646576570786,-0.3895193934440613,-0.4858320355415344,0.02781889401376247,0.04438522458076477,0.04633411765098572,0.005279600620269775,2,0.1872618549302988,-0.101099224196279,0.02556651361768553,0.9767591746477995,-0.207074448466301,-0.360649973154068,-0.9094238877296448,-21.92430877685547,-32.00521850585938,-27.11669921875,-1,2,1739080.303064542,4,1,1676782827.265931,0,0,0,0,0,0,0,0,0,1739082.575797,0,0.1030579,99.0818,1676782831.147426,0,182416158,0,0,1,1676782831.118168,1,0.82,1
1676782831.844934,22,1676782831.341189,34.0486747927061,-117.813925004475,216.5337,0.07420031,0.1722154,139.4593796323531,80.09476291814367,9.960753217603925,9.392554747904063,-9999,1676782831.830302,-22.25199127197266,-31.62339401245117,-27.57199096679688,189.3480987548828,177.8649291992188,17.77097511291504,1739084.878442167,-0.212493896484375,-0.3269805908203125,-0.894378662109375,1739084.873464167,-0.1631279438734055,-0.2647770643234253,-0.1958677768707275,1739084.852004167,-149.8034973144531,37.59880065917969,-322.1889038085938,1739084.824922167,0.0942841455403563,-0.223881424046301,0.3689646576570786,-0.3895193934440613,-0.4858320355415344,0.02781889401376247,0.04438522458076477,0.04633411765098572,0.005279600620269775,2,0.1872618549302988,-0.101099224196279,0.02556651361768553,0.9767591746477995,-0.207074448466301,-0.360649973154068,-0.9094238877296448,-21.92430877685547,-32.00521850585938,-27.11669921875,-1,2,1739080.303064542,4,1,1676782827.265931,0,0,0,0,0,0,0,0,0,1739082.575797,0,0.1030579,99.0818,1676782831.147426,0,182416158,0,0,1,1676782831.118168,1,0.82,1
1676782831.87637,23,1676782831.341189,34.0486747927061,-117.813925004475,216.5337,0.07420031,0.1722154,139.4593796323531,80.09476291814367,9.960753217603925,9.392554747904063,-9999,1676782831.870182,-22.45406341552734,-31.87518692016602,-27.670166015625,189.9102172851562,178.4270477294922,17.77119064331055,1739084.912049167,-0.2218780517578125,-0.3772430419921875,-0.8884429931640625,1739084.907071167,0.1310136765241623,0.009885387495160103,-0.1751081645488739,1739084.882021167,-150.0187683105469,37.77021789550781,-321.7100219726562,1739084.884666167,0.08270828546874451,-0.2426758201280629,0.3536054681158087,-0.02825898304581642,-0.1561509221792221,-0.2284422963857651,0.01841756701469421,0.01914924383163452,0.03506183624267578,2,0.179366702189752,-0.1118336665222205,0.01912789449598995,0.9772179858942921,-0.2254335582256317,-0.3462824523448944,-0.910641610622406,-22.75086212158203,-31.70859909057617,-27.26300048828125,-1,2,1739080.303064542,4,1,1676782827.265931,0,0,0,0,0,0,0,0,0,1739082.575797,0,0.1030579,99.0818,1676782831.147426,0,182416158,0,0,1,1676782831.118168,1,0.82,1
1676782831.915603,24,1676782831.341189,34.0486747927061,-117.813925004475,216.5337,0.07420031,0.1722154,139.4593796323531,80.09476291814367,9.960753217603925,9.392554747904063,-9999,1676782831.909935,-22.42383575439453,-32.29321670532227,-27.03720092773438,190.0604095458984,178.5772399902344,17.77140235900879,1739084.945655167,-0.2711029052734375,-0.3884735107421875,-0.9648895263671875,1739084.940676167,-0.1998292207717896,-0.3980831801891327,0.1142804995179176,1739084.942060167,-149.5599060058594,37.07746887207031,-321.3756713867188,1739084.884666167,0.08270828546874451,-0.2426758201280629,0.3536054681158087,-0.02825898304581642,-0.1561509221792221,-0.2284422963857651,0.01841756701469421,0.01914924383163452,0.03506183624267578,2,0.179366702189752,-0.1118336665222205,0.01912789449598995,0.9772179858942921,-0.2254335582256317,-0.3462824523448944,-0.910641610622406,-22.75086212158203,-31.70859909057617,-27.26300048828125,-1,2,1739080.303064542,4,1,1676782827.265931,0,0,0,0,0,0,0,0,0,1739082.575797,0,0.1030579,99.0818,1676782831.147426,0,182416158,0,0,1,1676782831.118168,1,0.82,1
1676782831.944387,25,1676782831.341189,34.0486747927061,-117.813925004475,216.5337,0.07420031,0.1722154,139.4593796323531,80.09476291814367,9.960753217603925,9.392554747904063,-9999,1676782831.930089,-22.86569976806641,-32.02975082397461,-26.984130859375,190.0686187744141,178.58544921875,17.77151298522949,1739084.979261167,-0.1737823486328125,-0.316497802734375,-0.8897705078125,1739084.974282167,-0.2576182186603546,-0.177436575293541,-0.03326208144426346,1739084.972081167,-149.6849060058594,37.60032653808594,-321.8268432617188,1739084.944410167,0.0774670582502559,-0.2520728380854722,0.3554018064624922,-0.2463049292564392,-0.3872210681438446,0.1163383424282074,-0.03784221410751343,-0.04847157001495361,-0.07477152347564697,2,0.1800245323994764,-0.1168399068788541,0.0156082308827431,0.9765736185637139,-0.2338252663612366,-0.3479670882225037,-0.9078792333602905,-22.42383575439453,-32.29321670532227,-27.03720092773438,-1,2,1739080.303064542,4,1,1676782827.265931,0,0,0,0,0,0,0,0,0,1739082.575797,0,0.1030579,99.0818,1676782831.147426,0,182416158,0,0,1,1676782831.118168,1,0.82,1
1676782831.979316,26,1676782831.341189,34.0486747927061,-117.813925004475,216.5337,0.07420031,0.1722154,139.4593796323531,80.09476291814367,9.960753217603925,9.392554747904063,-9999,1676782831.970025,-22.84703826904297,-31.62463760375977,-27.03732299804688,190.3401641845703,178.8569946289062,17.7717342376709,1739085.012866167,-0.277923583984375,-0.3702545166015625,-0.9236907958984375,1739085.007888167,-0.1528915464878082,-0.5023877620697021,0.02810353972017765,1739085.002100167,-150.0491943359375,37.78089904785156,-321.4481201171875,1739085.004154167,0.07374500645448766,-0.2692793119524963,0.3412090567255697,-0.1554665714502335,-0.5170617699623108,0.0009469457436352968,0.01968187093734741,-0.02804425358772278,-0.04371148347854614,2,0.1730038105878393,-0.1259924889025715,0.01322580087496622,0.9767397434048212,-0.2506999671459198,-0.334626704454422,-0.9083911776542664,-22.84703826904297,-31.62463760375977,-27.03732299804688,-1,2,1739080.303064542,4,1,1676782827.265931,0,0,0,0,0,0,0,0,0,1739082.575797,0,0.1030579,99.0818,1676782831.147426,0,182416158,0,0,1,1676782831.118168,1,0.82,1
1676782832.009245,27,1676782831.341189,34.0486747927061,-117.813925004475,216.5337,0.07420031,0.1722154,139.4593796323531,80.09476291814367,9.960753217603925,9.392554747904063,-9999,1676782831.989717,-23.28774261474609,-31.40000152587891,-27.26678466796875,190.3731689453125,178.8899993896484,17.77184677124023,1739085.046473167,-0.2765655517578125,-0.32330322265625,-0.9000396728515625,1739085.041495167,-0.1626706719398499,-0.2632436156272888,0.1656880378723145,1739085.032118167,-150.6511840820312,37.80828857421875,-321.5466918945312,1739085.004154167,0.07374500645448766,-0.2692793119524963,0.3412090567255697,-0.1554665714502335,-0.5170617699623108,0.0009469457436352968,0.01968187093734741,-0.02804425358772278,-0.04371148347854614,2,0.1730038105878393,-0.1259924889025715,0.01322580087496622,0.9767397434048212,-0.2506999671459198,-0.334626704454422,-0.9083911776542664,-22.84703826904297,-31.62463760375977,-27.03732299804688,-1,2,1739080.303064542,4,1,1676782827.265931,0,0,0,0,0,0,0,0,0,1739082.575797,0,0.1030579,99.0818,1676782831.147426,0,182416158,0,0,1,1676782831.118168,1,0.82,1
1676782832.044071,28,1676782831.341189,34.0486747927061,-117.813925004475,216.5337,0.07420031,0.1722154,139.4593796323531,80.09476291814367,9.960753217603925,9.392554747904063,-9999,1676782832.029384,-23.90178680419922,-31.05856323242188,-27.35708618164062,190.2540435791016,178.7708740234375,17.77206611633301,1739085.080079167,-0.2952728271484375,-0.3124542236328125,-0.9048309326171875,1739085.075100167,-0.2777282893657684,-0.2994072139263153,0.05295349657535553,1739085.062136167,-151.2126922607422,38.38555908203125,-321.769287109375,1739085.063898167,0.07732771255389526,-0.2911420768778771,0.3295365400775154,-0.2386832386255264,-0.3311039805412292,0.04728369787335396,0.06611102819442749,0.03634253144264221,-0.009489536285400391,2,0.1676987572258007,-0.1367127568324342,0.01395232235568944,0.9762131432017772,-0.271601140499115,-0.323604553937912,-0.9063735008239746,-23.90178680419922,-31.05856323242188,-27.35708618164062,-1,2,1739080.303064542,4,1,1676782827.265931,0,0,0,0,0,0,0,0,0,1739082.575797,0,0.1030579,99.0818,1676782831.147426,0,182416158,0,0,1,1676782831.118168,1,0.82,1
1676782832.078749,29,1676782831.341189,34.0486747927061,-117.813925004475,216.5337,0.07420031,0.1722154,139.4593796323531,80.09476291814367,9.960753217603925,9.392554747904063,-9999,1676782832.069123,-24.25354766845703,-30.72065734863281,-27.73526000976562,190.3076477050781,178.8244781494141,17.77228355407715,1739085.113685167,-0.311431884765625,-0.302886962890625,-0.91973876953125,1739085.108706167,-0.3094137907028198,-0.1745201349258423,0.08325760811567307,1739085.092157167,-151.3038940429688,38.56671142578125,-322.0957641601562,1739085.063898167,0.07732771255389526,-0.2911420768778771,0.3295365400775154,-0.2386832386255264,-0.3311039805412292,0.04728369787335396,0.06611102819442749,0.03634253144264221,-0.009489536285400391,2,0.1676987572258007,-0.1367127568324342,0.01395232235568944,0.9762131432017772,-0.271601140499115,-0.323604553937912,-0.9063735008239746,-23.90178680419922,-31.05856323242188,-27.35708618164062,-1,2,1739080.303064542,4,1,1676782827.265931,0,0,0,0,0,0,0,0,0,1739082.575797,0,0.1030579,99.0818,1676782831.147426,0,182416158,0,0,1,1676782831.118168,1,0.82,1
1676782832.116827,30,1676782831.341189,34.0486747927061,-117.813925004475,216.5337,0.07420031,0.1722154,139.4593796323531,80.09476291814367,9.960753217603925,9.392554747904063,-9999,1676782832.109042,-24.50371551513672,-30.52767181396484,-27.31076049804688,190.2264556884766,178.7432861328125,17.77250099182129,1739085.147291167,-0.2971649169921875,-0.3099212646484375,-0.875732421875,1739085.142312167,-0.1887478083372116,-0.1713605672121048,0.1666675508022308,1739085.122173167,-151.5413818359375,38.77346801757812,-321.6702575683594,1739085.123642167,0.07599873933660244,-0.3049163795194002,0.3111965506896181,-0.31288743019104,-0.2293387800455093,0.1033157259225845,-0.009937077760696411,0.002914190292358398,-0.03461712598800659,2,0.1587628531662259,-0.1441061319526149,0.01357771780587819,0.9766491083490927,-0.2857935130596161,-0.3061979413032532,-0.9080555438995361,-24.34432220458984,-30.66033935546875,-27.29763793945312,-1,2,1739080.303064542,4,1,1676782827.265931,0,0,0,0,0,0,0,0,0,1739082.575797,0,0.1030579,99.0818,1676782831.147426,0,182416158,0,0,1,1676782831.118168,1,0.82,1
1676782832.143616,31,1676782831.341189,34.0486747927061,-117.813925004475,216.5337,0.07420031,0.1722154,139.4593796323531,80.09476291814367,9.960753217603925,9.392554747904063,-9999,1676782832.129007,-24.65956878662109,-30.5540657043457,-27.7926025390625,190.0645141601562,178.5813446044922,17.77260780334473,1739085.180898167,-0.2715911865234375,-0.2622833251953125,-0.92510986328125,1739085.175919167,0.06623228639364243,-0.05430371686816216,0.06126096099615097,1739085.152191167,-152.0093536376953,38.6627197265625,-322.2794799804688,1739085.123642167,0.07599873933660244,-0.3049163795194002,0.3111965506896181,-0.31288743019104,-0.2293387800455093,0.1033157259225845,-0.009937077760696411,0.002914190292358398,-0.03461712598800659,2,0.1587628531662259,-0.1441061319526149,0.01357771780587819,0.9766491083490927,-0.2857935130596161,-0.3061979413032532,-0.9080555438995361,-24.34432220458984,-30.66033935546875,-27.29763793945312,-1,2,1739080.303064542,4,1,1676782827.265931,0,0,0,0,0,0,0,0,0,1739083.576373,0,0.1030579,99.0818,1676782831.147426,0,182416158,0,0,1,1676782831.118168,1,0.82,1
1676782832.178409,32,1676782831.341189,34.0486747927061,-117.813925004475,216.5337,0.07420031,0.1722154,139.4593796323531,80.09476291814367,9.960753217603925,9.392554747904063,-9999,1676782832.168855,-24.58223724365234,-30.37893676757812,-27.59100341796875,190.0613708496094,178.5782012939453,17.77282333374023,1739085.214503167,-0.318603515625,-0.2593841552734375,-0.9713592529296875,1739085.209525167,-0.08149805665016174,-0.3893195390701294,-0.09828875213861465,1739085.212224167,-151.8920745849609,39.17588806152344,-321.8601684570312,1739085.183386167,0.08177819758110472,-0.3143549192508561,0.3032668065093299,0.04565632343292236,-0.1734850406646729,0.01450122520327568,0.0209992527961731,0.03606623411178589,-0.02739924192428589,2,0.1553914769601593,-0.1485070754384035,0.01628581956936825,0.976490630248731,-0.2950928807258606,-0.2986395359039307,-0.9075982570648193,-24.56899261474609,-30.42623901367188,-27.68646240234375,-1,2,1739080.303064542,4,1,1676782827.265931,0,0,0,0,0,0,0,0,0,1739083.576373,0,0.1030579,99.0818,1676782831.147426,0,182416158,0,0,1,1676782831.118168,1,0.82,1
1676782832.213216,33,1676782831.341189,34.0486747927061,-117.813925004475,216.5337,0.07420031,0.1722154,139.4593796323531,80.09476291814367,9.960753217603925,9.392554747904063,-9999,1676782832.20869,-24.67011260986328,-30.22637176513672,-27.34298706054688,190.6484069824219,179.1652374267578,17.77304267883301,1739085.248109167,-0.2196502685546875,-0.30816650390625,-0.929168701171875,1739085.243130167,-0.02006452158093452,-0.1248908042907715,-0.2866227030754089,1739085.242239167,-151.8277435302734,39.19869995117188,-321.6486206054688,1739085.243130167,0.07228645276449659,-0.3281539146660625,0.3032569799143822,-0.02612311206758022,-0.136922150850296,-0.2896369993686676,0.09726211428642273,0.02615389227867126,0.01824992895126343,2,0.1547568549925863,-0.1559773080921421,0.01058465619268778,0.9755046969182368,-0.3075892925262451,-0.2986301481723785,-0.9034428000450134,-24.67011260986328,-30.22637176513672,-27.34298706054688,-1,2,1739080.303064542,4,1,1676782827.265931,0,0,0,0,0,0,0,0,0,1739083.576373,0,0.1030579,99.0818,1676782831.147426,0,182416158,0,0,1,1676782831.118168,1,0.82,1
1676782832.247957,34,1676782831.341189,34.0486747927061,-117.813925004475,216.5337,0.07420031,0.1722154,139.4593796323531,80.09476291814367,9.960753217603925,9.392554747904063,-9999,1676782832.228554,-24.92229461669922,-30.62831878662109,-26.80392456054688,190.9177398681641,179.4345703125,17.77314949035645,1739085.281715167,-0.421234130859375,-0.407623291015625,-0.905242919921875,1739085.276736167,0.1723656505346298,-0.3910258114337921,0.1342763155698776,1739085.272254167,-151.9043273925781,38.91593933105469,-321.4219055175781,1739085.243130167,0.07228645276449659,-0.3281539146660625,0.3032569799143822,-0.02612311206758022,-0.136922150850296,-0.2896369993686676,0.09726211428642273,0.02615389227867126,0.01824992895126343,2,0.1547568549925863,-0.1559773080921421,0.01058465619268778,0.9755046969182368,-0.3075892925262451,-0.2986301481723785,-0.9034428000450134,-24.67011260986328,-30.22637176513672,-27.34298706054688,-1,2,1739080.303064542,4,1,1676782827.265931,0,0,0,0,0,0,0,0,0,1739083.576373,0,0.1030579,99.0818,1676782831.147426,0,182416158,0,0,1,1676782831.118168,1,0.82,1
1676782832.278016,35,1676782831.341189,34.0486747927061,-117.813925004475,216.5337,0.07420031,0.1722154,139.4593796323531,80.09476291814367,9.960753217603925,9.392554747904063,-9999,1676782832.2684,-25.29219818115234,-30.53110504150391,-26.91119384765625,190.6466369628906,179.1634674072266,17.77337265014648,1739085.315322167,-0.30072021484375,-0.28460693359375,-0.8430328369140625,1739085.310343167,0.3408489227294922,-0.09015865623950958,0.1394255310297012,1739085.302270167,-152.5647888183594,38.91349792480469,-321.3203125,1739085.302874167,0.07680651566282908,-0.3477027246977609,0.311144828933141,0.3366440236568451,-0.169907808303833,0.1784723401069641,-0.03661456704139709,-0.02525699138641357,0.06995707750320435,2,0.1590584797648095,-0.1649026148351586,0.01057611449717649,0.9733424890289346,-0.3243778944015503,-0.3061487078666687,-0.8950150609016418,-25.29219818115234,-30.53110504150391,-26.91119384765625,-1,2,1739080.303064542,4,1,1676782827.265931,0,0,0,0,0,0,0,0,0,1739083.576373,0,0.1030579,99.0818,1676782831.147426,0,182416158,0,0,1,1676782831.118168,1,0.82,1
1676782832.317262,36,1676782831.341189,34.0486747927061,-117.813925004475,216.5337,0.07420031,0.1722154,139.4593796323531,80.09476291814367,9.960753217603925,9.392554747904063,-9999,1676782832.308288,-25.35507965087891,-30.72974014282227,-26.25625610351562,190.4567565917969,178.9735870361328,17.77359008789062,1739085.348927167,-0.246856689453125,-0.311279296875,-0.9019927978515625,1739085.343949167,0.1081461757421494,-0.1694228500127792,-0.02736051753163338,1739085.332287167,-152.5338897705078,38.45954895019531,-320.9605102539062,1739085.302874167,0.07680651566282908,-0.3477027246977609,0.311144828933141,0.3366440236568451,-0.169907808303833,0.1784723401069641,-0.03661456704139709,-0.02525699138641357,0.06995707750320435,2,0.1590584797648095,-0.1649026148351586,0.01057611449717649,0.9733424890289346,-0.3243778944015503,-0.3061487078666687,-0.8950150609016418,-25.29219818115234,-30.53110504150391,-26.91119384765625,-1,2,1739080.303064542,4,1,1676782827.265931,0,0,0,0,0,0,0,0,0,1739083.576373,0,0.1030579,99.0818,1676782831.147426,0,182416158,0,0,1,1676782831.118168,1,0.82,1
1676782832.349092,37,1676782831.341189,34.0486747927061,-117.813925004475,216.5337,0.07420031,0.1722154,139.4593796323531,80.09476291814367,9.960753217603925,9.392554747904063,-9999,1676782832.348224,-25.43163299560547,-30.78189849853516,-25.96969604492188,190.4993896484375,179.0162200927734,17.77380561828613,1739085.382533167,-0.396514892578125,-0.351806640625,-0.8211822509765625,1739085.377555167,0.1864143460988998,-0.09424421191215515,0.01628869213163853,1739085.362304167,-152.6736755371094,38.54055786132812,-320.3487548828125,1739085.362618167,0.08257907596991917,-0.3567613134525435,0.3214328793132037,0.1185004040598869,-0.1247707232832909,-0.02831758372485638,0.05134043097496033,-0.004813432693481445,0.0541873574256897,2,0.1645817930554313,-0.1684995621348578,0.01172920883455869,0.971793733033028,-0.3313544690608978,-0.3159263730049133,-0.8890414834022522,-25.39165496826172,-30.85848236083984,-25.95156860351562,-1,2,1739080.303064542,4,1,1676782827.265931,0,0,0,0,0,0,0,0,0,1739083.576373,0,0.1030579,99.0818,1676782831.147426,0,182416158,0,0,1,1676782831.118168,1,0.82,1
1676782832.382664,38,1676782831.341189,34.0486747927061,-117.813925004475,216.5337,0.07420031,0.1722154,139.4593796323531,80.09476291814367,9.960753217603925,9.392554747904063,-9999,1676782832.368197,-25.20676422119141,-30.89815521240234,-25.68356323242188,190.4647064208984,178.9815368652344,17.7739086151123,1739085.416139167,-0.2909698486328125,-0.2965850830078125,-0.8892822265625,1739085.411160167,-0.005692506674677134,0.3495641350746155,-0.05394366011023521,1739085.392321167,-152.4800262451172,38.61050415039062,-320.4475708007812,1739085.362618167,0.08257907596991917,-0.3567613134525435,0.3214328793132037,0.1185004040598869,-0.1247707232832909,-0.02831758372485638,0.05134043097496033,-0.004813432693481445,0.0541873574256897,2,0.1645817930554313,-0.1684995621348578,0.01172920883455869,0.971793733033028,-0.3313544690608978,-0.3159263730049133,-0.8890414834022522,-25.39165496826172,-30.85848236083984,-25.95156860351562,-1,2,1739080.303064542,4,1,1676782827.265931,0,0,0,0,0,0,0,0,0,1739083.576373,0,0.1030579,99.0818,1676782831.147426,0,182416158,0,0,1,1676782831.118168,1,0.82,1
1676782832.412565,39,1676782831.341189,34.0486747927061,-117.813925004475,216.5337,0.07420031,0.1722154,139.4593796323531,80.09476291814367,9.960753217603925,9.392554747904063,-9999,1676782832.407683,-25.13191986083984,-31.0952033996582,-25.56472778320312,190.4923858642578,179.0092163085938,17.77411079406738,1739085.449746167,-0.316375732421875,-0.3567657470703125,-0.8551025390625,1739085.444767167,-0.04555976018309593,0.01375522650778294,0.07812090218067169,1739085.422339167,-151.9973449707031,38.32917785644531,-320.5895080566406,1739085.422363167,0.08339858550401572,-0.3515006292872247,0.3276099997541554,-0.1477158814668655,0.08978476375341415,-0.03799362108111382,0.06667166948318481,0.02284607291221619,-0.07245683670043945,2,0.1676131402551943,-0.1656631183909935,0.01200750390000921,0.9717599235218786,-0.3259947896003723,-0.3217810690402985,-0.8889231085777283,-24.89743804931641,-31.07253646850586,-26.07559204101562,-1,2,1739080.303064542,4,1,1676782827.265931,0,0,0,0,0,0,0,0,0,1739083.576373,0,0.1030579,99.0818,1676782831.147426,0,182416158,0,0,1,1676782831.118168,1,0.82,1
1676782832.447339,40,1676782831.341189,34.0486747927061,-117.813925004475,216.5337,0.07420031,0.1722154,139.4593796323531,80.09476291814367,9.960753217603925,9.392554747904063,-9999,1676782832.42779,-25.00623321533203,-30.86659622192383,-26.09799194335938,190.3873291015625,178.9041595458984,17.77422714233398,1739085.483352167,-0.3037872314453125,-0.3204345703125,-0.911285400390625,1739085.478373167,-0.1832286715507507,0.09338214248418808,0.06781819462776184,1739085.482374167,-152.1706390380859,38.90754699707031,-321.4105834960938,1739085.422363167,0.08339858550401572,-0.3515006292872247,0.3276099997541554,-0.1477158814668655,0.08978476375341415,-0.03799362108111382,0.06667166948318481,0.02284607291221619,-0.07245683670043945,2,0.1676131402551943,-0.1656631183909935,0.01200750390000921,0.9717599235218786,-0.3259947896003723,-0.3217810690402985,-0.8889231085777283,-24.89743804931641,-31.07253646850586,-26.07559204101562,-1,2,1739080.303064542,4,1,1676782827.265931,0,0,0,0,0,0,0,0,0,1739083.576373,0,0.1030579,99.0818,1676782831.147426,0,182416158,0,0,1,1676782831.118168,1,0.82,1
1676782832.481955,41,1676782832.290846,34.04867935393418,-117.8139255339918,216.5424,0.07195503,0.06706734,126.65753572697,38.69444021758344,9.426692165159752,8.085035169493873,-9999,1676782832.471538,-25.15050506591797,-30.72859191894531,-26.50704956054688,190.2567138671875,178.7735443115234,17.77445983886719,1739085.516957167,-0.2859649658203125,-0.32489013671875,-0.84161376953125,1739085.511979167,0.2280715107917786,0.0140409842133522,0.07554136216640472,1739085.512393167,-152.5524139404297,38.72715759277344,-320.9719848632812,1739085.482107167,0.08452579696571709,-0.3495718805140974,0.3201868290055006,-0.2038826644420624,0.0688304677605629,0.06399388611316681,0.02000463008880615,-0.004408955574035645,-0.01898139715194702,2,0.1640947164514083,-0.1648878046058118,0.01337823548749068,0.972474076235171,-0.3250888288021088,-0.3147439062595367,-0.8917698860168457,-24.97441864013672,-30.58234405517578,-26.7216796875,-1,2,1739080.303064542,4,1,1676782827.265931,0,0,0,0,0,0,0,0,0,1739083.576373,0,0.1030579,99.0818,1676782831.147426,0,182416158,0,0,1,1676782831.118168,1,0.82,1
1676782832.517031,42,1676782832.290846,34.04867935393418,-117.8139255339918,216.5424,0.07195503,0.06706734,126.65753572697,38.69444021758344,9.426692165159752,8.085035169493873,-9999,1676782832.507347,-25.19152069091797,-30.74184417724609,-25.92657470703125,189.9560699462891,178.472900390625,17.77469062805176,1739085.550563167,-0.3408050537109375,-0.33251953125,-1.015625,1739085.545585167,0.03655774518847466,-0.1250513941049576,0.1131185665726662,1739085.542415167,-152.4297180175781,38.66654968261719,-320.1445922851562,1739085.541851167,0.09186750718262829,-0.350838820546146,0.324914289138411,0.1332284659147263,-0.1082405298948288,0.114669032394886,-0.03049781918525696,-0.02725380659103394,-0.1170689463615417,2,0.1670013605664432,-0.1647286212879014,0.0164197191687418,0.9719596146524179,-0.325703352689743,-0.319227546453476,-0.8899500370025635,-25.19152069091797,-30.74184417724609,-25.92657470703125,-1,2,1739080.303064542,4,1,1676782827.265931,0,0,0,0,0,0,0,0,0,1739083.576373,0,0.1030579,99.0818,1676782831.147426,0,182416158,0,0,1,1676782831.118168,1,0.82,1
1676782832.575048,43,1676782832.290846,34.04867935393418,-117.8139255339918,216.5424,0.07195503,0.06706734,126.65753572697,38.69444021758344,9.426692165159752,8.085035169493873,-9999,1676782832.567076,-25.83057403564453,-30.25343704223633,-26.47848510742188,190.0758209228516,178.5926513671875,17.7750358581543,1739085.584170167,-0.3939971923828125,-0.33197021484375,-0.862274169921875,1739085.579192167,-0.6661173105239868,-0.1956706941127777,0.1052388027310371,1739085.572434167,-152.6788482666016,38.73599243164062,-320.4093017578125,1739085.541851167,0.09186750718262829,-0.350838820546146,0.324914289138411,0.1332284659147263,-0.1082405298948288,0.114669032394886,-0.03049781918525696,-0.02725380659103394,-0.1170689463615417,2,0.1670013605664432,-0.1647286212879014,0.0164197191687418,0.9719596146524179,-0.325703352689743,-0.319227546453476,-0.8899500370025635,-25.19152069091797,-30.74184417724609,-25.92657470703125,-1,2,1739080.303064542,4,1,1676782827.265931,0,0,0,0,0,0,0,0,0,1739083.576373,0,0.1030579,99.0818,1676782831.147426,0,182416158,0,0,1,1676782831.118168,1,0.82,1
1676782832.581788,44,1676782832.290846,34.04867935393418,-117.8139255339918,216.5424,0.07195503,0.06706734,126.65753572697,38.69444021758344,9.426692165159752,8.085035169493873,-9999,1676782832.567076,-25.83057403564453,-30.25343704223633,-26.47848510742188,190.0758209228516,178.5926513671875,17.7750358581543,1739085.615286167,-0.2922515869140625,-0.27679443359375,-0.8565521240234375,1739085.610307167,-0.4502891302108765,0.02104856073856354,0.01881709694862366,1739085.602454167,-153.0029602050781,39.22412109375,-320.8366088867188,1739085.601595167,0.08603168722272715,-0.3603583311779093,0.2961973375833842,-0.6011649370193481,-0.05796629190444946,0.02010135725140572,0.04681879281997681,-0.002075374126434326,-0.001722872257232666,2,0.1526568245664421,-0.1708375446861871,0.01542455204277854,0.9732792577457815,-0.3372546136379242,-0.2918852567672729,-0.8950208425521851,-25.83057403564453,-30.25343704223633,-26.47848510742188,-1,2,1739080.303064542,4,1,1676782827.265931,0,0,0,0,0,0,0,0,0,1739083.576373,0,0.1030579,99.0818,1676782831.147426,0,182416158,0,0,1,1676782831.118168,1,0.82,1
1676782832.641352,45,1676782832.290846,34.04867935393418,-117.8139255339918,216.5424,0.07195503,0.06706734,126.65753572697,38.69444021758344,9.426692165159752,8.085035169493873,-9999,1676782832.626922,-25.48528289794922,-30.20115661621094,-26.91915893554688,189.6614685058594,178.1782989501953,17.77536392211914,1739085.675030167,-0.3495941162109375,-0.274658203125,-0.8764495849609375,1739085.670051167,0.1617066115140915,0.84848952293396,0.2283066660165787,1739085.662498167,-152.5829620361328,39.20135498046875,-321.2199096679688,1739085.661339167,0.08865065777567789,-0.3406273039926619,0.2872041460228343,0.1917401850223541,0.757865309715271,0.1966707855463028,-0.03440293669700623,-0.001228183507919312,0.08719635009765625,2,0.1483329550601371,-0.1613325929391976,0.01898827949235188,0.9755042554247053,-0.3203944265842438,-0.283271998167038,-0.9039382338523865,-25.48528289794922,-30.20115661621094,-26.91915893554688,-1,2,1739080.303064542,4,1,1676782827.265931,0,0,0,0,0,0,0,0,0,1739083.576373,0,0.1030579,99.0818,1676782831.147426,0,182416158,0,0,1,1676782831.118168,1,0.82,1
1676782832.701123,46,1676782832.290846,34.04867935393418,-117.8139255339918,216.5424,0.07195503,0.06706734,126.65753572697,38.69444021758344,9.426692165159752,8.085035169493873,-9999,1676782832.686709,-24.66852569580078,-29.79340744018555,-28.75909423828125,188.7183990478516,177.2352294921875,17.77568626403809,1739085.734774167,-0.232421875,-0.2804412841796875,-1.057220458984375,1739085.729796167,-0.5192759037017822,0.1751723438501358,0.04327183961868286,1739085.722529167,-151.8496246337891,39.68701171875,-323.3241882324219,1739085.721083167,0.09809322349701076,-0.3042803078112221,0.2768076162291634,-0.5012206435203552,0.3756482899188995,0.0878484770655632,0.02436169981956482,-0.008085936307907104,-0.08979350328445435,2,0.1435639465212763,-0.1432384231573652,0.02711364079975465,0.978844706130949,-0.2882014214992523,-0.2732861936092377,-0.9177442789077759,-24.66852569580078,-29.79340744018555,-28.75909423828125,-1,2,1739080.303064542,4,1,1676782827.265931,0,0,0,0,0,0,0,0,0,1739083.576373,0,0.1030579,99.0818,1676782831.147426,0,182416158,0,0,1,1676782831.118168,1,0.82,1
1676782832.761067,47,1676782832.290846,34.04867935393418,-117.8139255339918,216.5424,0.07195503,0.06706734,126.65753572697,38.69444021758344,9.426692165159752,8.085035169493873,-9999,1676782832.746449,-24.54160308837891,-29.17103958129883,-29.2681884765625,188.5275573730469,177.0443878173828,17.77601432800293,1739085.794518167,-0.3177947998046875,-0.258087158203125,-0.861358642578125,1739085.789540167,0.6409408450126648,0.5372019410133362,0.1021753698587418,1739085.782562167,-151.5563507080078,40.24534606933594,-323.64013671875,1739085.780827167,0.09775862490012784,-0.2912936385609445,0.2646470311242871,0.4911372363567352,0.4372879266738892,0.09212761372327805,-0.03266724944114685,0.01318597793579102,0.110224187374115,2,0.1374140254711526,-0.1373136608876699,0.02879435533645341,0.9805269876589973,-0.277193009853363,-0.2615686058998108,-0.9245246648788452,-24.54160308837891,-29.17103958129883,-29.2681884765625,-1,2,1739080.303064542,4,1,1676782827.265931,0,0,0,0,0,0,0,0,0,1739083.576373,0,0.1030579,99.0818,1676782831.147426,0,182416158,0,0,1,1676782831.118168,1,0.82,1
1676782832.820432,48,1676782832.290846,34.04867935393418,-117.8139255339918,216.5424,0.07195503,0.06706734,126.65753572697,38.69444021758344,9.426692165159752,8.085035169493873,-9999,1676782832.806168,-23.82593536376953,-30.20819854736328,-28.87408447265625,187.6341400146484,176.1509704589844,17.77635383605957,1739085.854259125,-0.220611572265625,-0.297882080078125,-0.984649658203125,1739085.849280125,0.536316990852356,0.4476827085018158,-0.02314100600779057,1739085.842595125,-151.0144958496094,39.13909912109375,-323.3560791015625,1739085.840568125,0.1146241051061343,-0.2623026585412973,0.3033208720299683,0.6308870911598206,0.4813390672206879,0.007741914130747318,0.00155717134475708,0.01953154802322388,-0.04010045528411865,2,0.1569412440157414,-0.1204826848179294,0.0364117986800151,0.9795548199811865,-0.2474678158760071,-0.2986911237239838,-0.9217067360877991,-23.82593536376953,-30.20819854736328,-28.87408447265625,-1,2,1739080.303064542,4,1,1676782827.265931,0,0,0,0,0,0,0,0,0,1739083.576373,0,0.1030579,99.0818,1676782831.147426,0,182416158,0,0,1,1676782831.118168,1,0.82,1
1676782832.880277,49,1676782832.290846,34.04867935393418,-117.8139255339918,216.5424,0.07195503,0.06706734,126.65753572697,38.69444021758344,9.426692165159752,8.085035169493873,-9999,1676782832.865944,-23.47570037841797,-30.85477447509766,-28.35061645507812,187.3730010986328,175.8898315429688,17.77667999267578,1739085.914003125,-0.23724365234375,-0.290863037109375,-0.93743896484375,1739085.909024125,0.164251521229744,0.1472469717264175,0.01264335680752993,1739085.902634125,-150.5079498291016,38.77604675292969,-323.0717468261719,1739085.900312125,0.1184839311332724,-0.244236670752517,0.3200809366183507,0.1333955973386765,0.185401663184166,0.02551909163594246,-0.003620415925979614,0.0004038214683532715,-0.03933340311050415,2,0.165014081649051,-0.1106824710048842,0.03863724040143424,0.9792992050785093,-0.2295338958501816,-0.314643383026123,-0.9210394620895386,-23.47570037841797,-30.85477447509766,-28.35061645507812,-1,2,1739080.303064542,4,1,1676782827.265931,0,0,0,0,0,0,0,0,0,1739083.576373,0,0.1030579,99.0818,1676782831.147426,0,182416158,0,0,1,1676782831.118168,1,0.82,1
1676782832.940322,50,1676782832.290846,34.04867935393418,-117.8139255339918,216.5424,0.07195503,0.06706734,126.65753572697,38.69444021758344,9.426692165159752,8.085035169493873,-9999,1676782832.925548,-22.95740509033203,-30.59642028808594,-28.49203491210938,187.4951782226562,176.0120086669922,17.77700805664062,1739085.973747125,-0.2265777587890625,-0.3519134521484375,-0.9220733642578125,1739085.968768125,0.3021436035633087,0.1913185566663742,-0.092078797519207,1739085.962673125,-150.0937805175781,38.55404663085938,-322.3359985351562,1739085.960056125,0.1166605145040021,-0.2356111667338987,0.3342415665950428,0.2923363149166107,0.1682242602109909,-0.1367791295051575,-0.005692809820175171,0.006412744522094727,0.007213771343231201,2,0.1716664663989676,-0.1060685153818416,0.0375688464912215,0.9787075881820202,-0.2205187380313873,-0.3280527889728546,-0.9185602068901062,-22.95740509033203,-30.59642028808594,-28.49203491210938,-1,2,1739080.303064542,4,1,1676782827.265931,0,0,0,0,0,0,0,0,0,1739083.576373,0,0.1030579,99.0818,1676782831.147426,0,182416158,0,0,1,1676782831.118168,1,0.82,1
1676782832.999713,51,1676782832.290846,34.04867935393418,-117.8139255339918,216.5424,0.07195503,0.06706734,126.65753572697,38.69444021758344,9.426692165159752,8.085035169493873,-9999,1676782832.985343,-22.82395172119141,-31.49643325805664,-27.71426391601562,187.2016143798828,175.7184448242188,17.7773380279541,1739086.033491125,-0.1669921875,-0.3307342529296875,-0.975677490234375,1739086.028513125,0.2260472476482391,-0.1121371909976006,0.1244180947542191,1739086.022705125,-149.9804382324219,37.7216796875,-322.0344848632812,1739086.019800125,0.1229072937546365,-0.2302865728449629,0.3513152731509414,0.2686064541339874,-0.02742929384112358,0.1554206311702728,0.01909387111663818,-0.01020660996437073,-0.03065931797027588,2,0.1802181423061415,-0.1022460073755755,0.0400298863047629,0.9774788203967629,-0.2143148332834244,-0.344133049249649,-0.9141343235969543,-22.82395172119141,-31.49643325805664,-27.71426391601562,-1,2,1739080.303064542,4,1,1676782827.265931,0,0,0,0,0,0,0,0,0,1739083.576373,0,0.1030579,99.0818,1676782831.147426,0,182416158,0,0,1,1676782831.118168,1,0.82,1
1676782833.059746,52,1676782832.290846,34.04867935393418,-117.8139255339918,216.5424,0.07195503,0.06706734,126.65753572697,38.69444021758344,9.426692165159752,8.085035169493873,-9999,1676782833.045051,-23.57256317138672,-31.74192047119141,-27.15325927734375,187.0928192138672,175.6096496582031,17.77767944335938,1739086.093235125,-0.2490234375,-0.3607940673828125,-0.9118804931640625,1739086.088257125,0.06779316067695618,-0.7513003945350647,0.2776255011558533,1739086.082747125,-150.9029541015625,37.91157531738281,-320.9058227539062,1739086.079544125,0.1305731558656311,-0.2589744870859666,0.3557913831668318,0.02372179552912712,-0.7327603697776794,0.1805829405784607,0.01849314570426941,-0.02198332548141479,-0.04882806539535522,2,0.1833948160769743,-0.1153689366828013,0.04087179053966339,0.9753900672958867,-0.2400507777929306,-0.3483322858810425,-0.9061126708984375,-23.57256317138672,-31.74192047119141,-27.15325927734375,-1,2,1739080.303064542,4,1,1676782827.265931,0,0,0,0,0,0,0,0,0,1739083.576373,0,0.1030579,99.0818,1676782831.147426,0,182416158,0,0,1,1676782831.118168,1,0.82,1
1676782833.119344,53,1676782832.290846,34.04867935393418,-117.8139255339918,216.5424,0.07195503,0.06706734,126.65753572697,38.69444021758344,9.426692165159752,8.085035169493873,-9999,1676782833.104898,-25.34732818603516,-31.21430969238281,-25.97869873046875,186.0355377197266,174.5523681640625,17.77804374694824,1739086.152980125,-0.2010040283203125,-0.305419921875,-0.71746826171875,1739086.148001125,0.1206691563129425,1.009382009506226,0.09663919359445572,1739086.142788125,-152.3881225585938,38.5079345703125,-320.1446533203125,1739086.139289125,0.1571970007335826,-0.30296188887055,0.356482135296937,0.1354918777942657,0.5469622015953064,0.1852106153964996,0.1977584660053253,0.05059397220611572,0.1715044975280762,2,0.1863881335520935,-0.1342913865763967,0.04971657369678273,0.9719844022093208,-0.2795914113521576,-0.3489797115325928,-0.8944505453109741,-25.34732818603516,-31.21430969238281,-25.97869873046875,-1,2,1739080.303064542,4,1,1676782827.265931,0,0,0,0,0,0,0,0,0,1739083.576373,0,0.1030579,99.0818,1676782831.147426,0,182416158,0,0,1,1676782831.118168,1,0.82,1
1676782833.179056,54,1676782832.290846,34.04867935393418,-117.8139255339918,216.5424,0.07195503,0.06706734,126.65753572697,38.69444021758344,9.426692165159752,8.085035169493873,-9999,1676782833.164746,-23.54988861083984,-30.88808441162109,-27.838134765625,184.2151489257812,172.7319793701172,17.7784538269043,1739086.212724125,-0.109710693359375,-0.318695068359375,-0.890350341796875,1739086.207745125,-0.2980721592903137,1.603521227836609,0.4702719151973724,1739086.202832125,-150.4699096679688,38.93438720703125,-322.7093505859375,1739086.199033125,0.1724276579163397,-0.2169646748951806,0.3494426458330371,-0.222862184047699,1.609900116920471,0.4786664545536041,0.03866705298423767,0.02473193407058716,0.06632441282272339,2,0.1813508487847578,-0.09134495943905907,0.06554660231667953,0.9769705980470701,-0.2022565454244614,-0.3423742055892944,-0.9175359606742859,-23.54988861083984,-30.88808441162109,-27.838134765625,-1,2,1739080.303064542,4,1,1676782827.265931,0,0,0,0,0,0,0,0,0,1739083.576373,0,0.1030579,99.0818,1676782831.147426,0,182416158,0,0,1,1676782831.118168,1,0.82,1
1676782833.238694,55,1676782832.290846,34.04867935393418,-117.8139255339918,216.5424,0.07195503,0.06706734,126.65753572697,38.69444021758344,9.426692165159752,8.085035169493873,-9999,1676782833.224325,-22.39189910888672,-30.15016174316406,-30.47817993164062,181.5289154052734,170.0457458496094,17.77881622314453,1739086.272468125,-0.076202392578125,-0.20062255859375,-1.080062866210938,1739086.267489125,0.3521508574485779,-0.3639428019523621,1.113499045372009,1739086.262875125,-150.1114196777344,40.100830078125,-324.3619384765625,1739086.258777125,0.2070076234699318,-0.1554356380769705,0.3326015999297718,0.1993415057659149,0.08666476607322693,0.9871039390563965,0.06086176633834839,0.05811625719070435,-0.2029787302017212,2,0.1720634094478374,-0.05910736819418329,0.08880281451501348,0.9792929103568984,-0.1463262885808945,-0.3265031576156616,-0.933800995349884,-22.39189910888672,-30.15016174316406,-30.47817993164062,-1,2,1739080.303064542,4,1,1676782827.265931,0,0,0,0,0,0,0,0,0,1739083.576373,0,0.1030579,99.0818,1676782831.147426,0,182416158,0,0,1,1676782831.118168,1,0.82,1
1676782833.298412,56,1676782832.290846,34.04867935393418,-117.8139255339918,216.5424,0.07195503,0.06706734,126.65753572697,38.69444021758344,9.426692165159752,8.085035169493873,-9999,1676782833.284234,-24.71588897705078,-29.12825393676758,-28.32882690429688,176.2446441650391,164.761474609375,17.77909088134766,1739086.332212125,-0.0370025634765625,-0.407806396484375,-0.673004150390625,1739086.327234125,-0.08904758095741272,0.1949319392442703,0.7761580348014832,1739086.322918125,-152.3839874267578,40.79493713378906,-322.4395446777344,1739086.318521125,0.275215578457972,-0.2136845004403316,0.344859421520519,0.08236432075500488,-0.3866113126277924,0.8882938623428345,0.3311834931373596,0.1272031366825104,0.1540170311927795,2,0.1833966785320678,-0.08066298986875095,0.1162453309214027,0.9728032527826374,-0.1995764523744583,-0.3380643725395203,-0.9197182655334473,-24.71588897705078,-29.12825393676758,-28.32882690429688,-1,2,1739080.303064542,4,1,1676782827.265931,0,0,0,0,0,0,0,0,0,1739083.576373,0,0.1030579,99.0818,1676782831.147426,0,182416158,0,0,1,1676782831.118168,1,0.82,1
1676782833.358295,57,1676782832.290846,34.04867935393418,-117.8139255339918,216.5424,0.07195503,0.06706734,126.65753572697,38.69444021758344,9.426692165159752,8.085035169493873,-9999,1676782833.343801,-23.75800323486328,-28.05013275146484,-30.11801147460938,172.1348876953125,160.6517181396484,17.77919006347656,1739086.391957125,0.045623779296875,-0.487579345703125,-0.372528076171875,1739086.386978125,-0.2784494757652283,3.407584428787231,0.3451230525970459,1739086.382955125,-149.7960662841797,41.38778686523438,-325.6929931640625,1739086.378266125,0.2986769115436473,-0.1341952804119909,0.3281527771739074,-0.2643700838088989,3.000917196273804,0.2712640166282654,0.2034662961959839,-0.1866620182991028,0.5267514586448669,2,0.171001288091122,-0.04116273498135944,0.1356257697080012,0.9750230085255353,-0.1266535967588425,-0.3222949206829071,-0.9381283521652222,-23.75800323486328,-28.05013275146484,-30.11801147460938,-1,2,1739080.303064542,4,1,1676782827.265931,0,0,0,0,0,0,0,0,0,1739083.576373,0,0.1030579,99.0818,1676782831.147426,0,182416158,0,0,1,1676782831.118168,1,0.82,1
1676782833.41792,58,1676782833.24083,34.04868600100434,-117.8139168425928,216.5499,0.07420031,0.566983,55.96413953154715,29.31605849266102,14.81655827876458,11.92787787682829,-9999,1676782833.409071,-18.37155914306641,-27.09185409545898,-34.72747802734375,167.4895782470703,156.0064086914062,17.77986907958984,1739086.451701125,-0.1041259765625,-0.448944091796875,-0.1754150390625,1739086.446722125,0.5920206904411316,2.030893087387085,0.1428173333406448,1739086.442980125,-144.5101470947266,42.34129333496094,-329.7261657714844,1739086.438010125,0.3167531337278895,0.06010978746439182,0.3142304389774248,0.3020339012145996,1.923894166946411,0.1405961066484451,-0.2612336575984955,-0.2297337353229523,0.07965749502182007,2,0.1497605357638721,0.05397528323404761,0.1603454635171753,0.9741394774674972,0.0571320615708828,-0.3090846836566925,-0.9493169188499451,-18.37155914306641,-27.09185409545898,-34.72747802734375,-1,2,1739080.303064542,4,1,1676782827.265931,0,0,0,0,0,0,0,0,0,1739083.576373,0,0.1030579,99.0818,1676782831.147426,0,182416158,0,0,1,1676782831.118168,1,0.82,1
1676782833.477639,59,1676782833.24083,34.04868600100434,-117.8139168425928,216.5499,0.07420031,0.566983,55.96413953154715,29.31605849266102,14.81655827876458,11.92787787682829,-9999,1676782833.463238,-12.99042510986328,-28.75491333007812,-35.09317016601562,163.0079193115234,151.5247497558594,17.78060913085938,1739086.511445125,0.3046417236328125,-0.017791748046875,0.2965545654296875,1739086.506466125,3.269460678100586,4.991978168487549,0.5933453440666199,1739086.503004125,-138.4315948486328,39.39198303222656,-328.3578491210938,1739086.497754125,0.3277451141338302,0.2296201976966977,0.4050750524846362,2.825325965881348,4.363929271697998,0.6910840272903442,-0.1047416925430298,0.3686513006687164,1.16007137298584,2,0.1788471845426652,0.1433135213031436,0.1814885986007514,0.9563141873620975,0.2091880589723587,-0.3940877318382263,-0.8949498534202576,-12.99042510986328,-28.75491333007812,-35.09317016601562,-1,2,1739080.303064542,4,1,1676782827.265931,0,0,0,0,0,0,0,0,0,1739083.576373,0,0.1030579,99.0818,1676782831.147426,0,182416158,0,0,1,1676782831.118168,1,0.82,1
1676782833.537456,60,1676782833.24083,34.04868600100434,-117.8139168425928,216.5499,0.07420031,0.566983,55.96413953154715,29.31605849266102,14.81655827876458,11.92787787682829,-9999,1676782833.523243,-2.619789123535156,-35.6157341003418,-29.52401733398438,160.0625915527344,148.5794219970703,17.78287124633789,1739086.571189125,1.02740478515625,0.222747802734375,-0.0994873046875,1739086.566211125,5.184849739074707,6.655956268310547,-2.76124119758606,1739086.563036125,-126.0597534179688,32.03428649902344,-320.8577880859375,1739086.557498125,0.1829454392484289,0.658132920902219,0.6145602820737561,5.11541748046875,6.657546043395996,-2.151314496994019,0.4524060487747192,0.7857972979545593,0.7314927577972412,2,0.2569051569536354,0.3328815848930718,0.1797315814123178,0.8893177829891007,0.4997271001338959,-0.5765992999076843,-0.6463791728019714,-2.619789123535156,-35.6157341003418,-29.52401733398438,-1,2,1739080.303064542,4,1,1676782827.265931,0,0,0,0,0,0,0,0,0,1739083.576373,0,0.1030579,99.0818,1676782831.147426,0,182416158,0,0,1,1676782831.118168,1,0.82,1
1676782833.597139,61,1676782833.24083,34.04868600100434,-117.8139168425928,216.5499,0.07420031,0.566983,55.96413953154715,29.31605849266102,14.81655827876458,11.92787787682829,-9999,1676782833.583676,14.87731170654297,-39.83396148681641,-14.4742431640625,171.7388916015625,160.2557220458984,17.78613471984863,1739086.630934125,1.580123901367188,0.154632568359375,-0.27923583984375,1739086.625955125,4.551650047302246,5.380262851715088,-5.710105419158936,1739086.623074125,-108.0945281982422,30.12554931640625,-304.7596130371094,1739086.617243125,-0.2758372822501146,1.312113845334889,0.5714796903011972,4.726949214935303,5.802801609039307,-5.585637092590332,0.6527497172355652,0.736876368522644,-0.08737626671791077,2,0.3016949843783687,0.5489993388118953,0.0657817205000602,0.7766933366062541,0.8131162524223328,-0.5408772230148315,-0.2151597291231155,14.87731170654297,-39.83396148681641,-14.4742431640625,-1,2,1739080.303064542,4,1,1676782827.265931,0,0,0,0,0,0,0,0,0,1739083.576373,0,0.1030579,99.0818,1676782831.147426,0,182416158,0,0,1,1676782831.118168,1,0.82,1
1676782833.659152,62,1676782833.24083,34.04868600100434,-117.8139168425928,216.5499,0.07420031,0.566983,55.96413953154715,29.31605849266102,14.81655827876458,11.92787787682829,-9999,1676782833.642549,30.08021545410156,-31.68803024291992,1.17828369140625,198.2339630126953,186.7507934570312,17.78903579711914,1739086.690678125,2.268692016601562,0.25921630859375,-0.208221435546875,1739086.685699125,3.47844386100769,3.101787805557251,-7.334696292877197,1739086.683111125,-94.06166076660156,40.86175537109375,-290.1099853515625,1739086.676987125,-0.5472355503154621,1.695358707446664,0.2132405454376322,3.441029071807861,3.36209774017334,-7.202579498291016,1.131799936294556,0.5490761995315552,-0.4165620803833008,2,0.2692434969382397,0.6987282596247805,-0.1009747661896643,0.6550501733348755,0.9697777628898621,-0.2116281539201736,0.121426485478878,30.08021545410156,-31.68803024291992,1.17828369140625,-1,2,1739080.303064542,4,1,1676782827.265931,0,0,0,0,0,0,0,0,0,1739083.576373,0,0.1030579,99.0818,1676782831.147426,0,182416158,0,0,1,1676782831.118168,1,0.82,1
1676782833.71661,63,1676782833.24083,34.04868600100434,-117.8139168425928,216.5499,0.07420031,0.566983,55.96413953154715,29.31605849266102,14.81655827876458,11.92787787682829,-9999,1676782833.702436,39.77632141113281,-15.43618392944336,10.96463012695312,235.5970306396484,224.1138610839844,17.79147529602051,1739086.750422125,2.232131958007812,0.0378875732421875,0.0137939453125,1739086.745444125,3.362886428833008,-0.6019856929779053,-4.723222732543945,1739086.743151125,-86.04190063476562,57.80580139160156,-282.9159545898438,1739086.736731125,-0.6799032864077784,1.803143384794991,-0.2205014486131789,3.54036021232605,-0.179780974984169,-5.136135101318359,1.396990418434143,-0.2071223556995392,-0.1892714500427246,2,0.195579067483952,0.7576888175912557,-0.2869601548400322,0.5525490165375029,0.9495671987533569,0.2187189608812332,0.2246870249509811,39.77632141113281,-15.43618392944336,10.96463012695312,-1,2,1739080.303064542,4,1,1676782827.265931,0,0,0,0,0,0,0,0,0,1739084.127313,0,0.1083374,99.08177,1676782831.147426,0,182416158,0,0,1,1676782831.118168,1,0.82,1
1676782833.776366,64,1676782833.24083,34.04868600100434,-117.8139168425928,216.5499,0.07420031,0.566983,55.96413953154715,29.31605849266102,14.81655827876458,11.92787787682829,-9999,1676782833.762072,43.33316040039062,-1.133926391601562,10.4720458984375,260.5591125488281,249.0759429931641,17.79275703430176,1739086.810167542,2.251113891601562,0.0564117431640625,0.366424560546875,1739086.805188542,2.303264379501343,-1.146645545959473,-4.507270336151123,1739086.803193542,-83.78538513183594,71.54742431640625,-284.6292724609375,1739086.796476125,-0.8037982674598081,1.695587727944101,-0.5238200327519404,2.308814764022827,-1.239830851554871,-4.706971168518066,1.483836531639099,-0.1873866319656372,0.1958561837673187,2,0.1256382188900542,0.7335559014630795,-0.4286637483148045,0.5122089587893286,0.8591809272766113,0.5001916289329529,0.1077784448862076,43.33316040039062,-1.133926391601562,10.4720458984375,-1,2,1739080.303064542,4,1,1676782827.265931,0,0,0,0,0,0,0,0,0,1739084.127313,0,0.1083374,99.08177,1676782831.147426,0,182416158,0,0,1,1676782831.118168,1,0.82,1
1676782833.836157,65,1676782833.24083,34.04868600100434,-117.8139168425928,216.5499,0.07420031,0.566983,55.96413953154715,29.31605849266102,14.81655827876458,11.92787787682829,-9999,1676782833.821744,43.55148315429688,9.04351806640625,5.726593017578125,274.3733520507812,262.8901977539062,17.79365539550781,1739086.869911542,1.724639892578125,-0.1604766845703125,0.2186431884765625,1739086.864932542,1.952556133270264,-1.719090223312378,-0.07515999674797058,1739086.863227542,-84.10258483886719,78.8564453125,-289.7445678710938,1739086.856220542,-0.9630734357859727,1.516594072766597,-0.7061694885418368,2.146800756454468,-1.818825840950012,-0.5607151985168457,0.9587396383285522,-1.075453042984009,0.358343243598938,2,0.07634732360141994,0.6881578358187564,-0.5262582110464977,0.4936213705933196,0.759735643863678,0.6489240527153015,-0.04121975973248482,43.55148315429688,9.04351806640625,5.726593017578125,-1,2,1739080.303064542,4,1,1676782827.265931,0,0,0,0,0,0,0,0,0,1739084.127313,0,0.1083374,99.08177,1676782831.147426,0,182416158,0,0,1,1676782831.118168,1,0.82,1
1676782833.89591,66,1676782833.24083,34.04868600100434,-117.8139168425928,216.5499,0.07420031,0.566983,55.96413953154715,29.31605849266102,14.81655827876458,11.92787787682829,-9999,1676782833.881491,44.43415832519531,8.888984680175781,0.529388427734375,272.5750122070312,261.0918579101562,17.79420471191406,1739086.929655542,1.314208984375,0.400634765625,0.3211669921875,1739086.924677542,-0.04756831750273705,-2.762008666992188,0.9884665608406067,1739086.923262542,-82.43511962890625,77.70915222167969,-295.7811279296875,1739086.915964542,-1.069390374907467,1.338683393730034,-0.6657205198509055,0.4526616036891937,-2.510086297988892,1.059145092964172,0.7138520479202271,-0.4639852046966553,0.4097210764884949,2,0.07834406579247288,0.6351412685594824,-0.5521320621924291,0.5344230878786662,0.765380859375,0.6176259517669678,-0.1809155493974686,44.43415832519531,8.888984680175781,0.529388427734375,-1,2,1739080.303064542,4,1,1676782827.265931,0,0,0,0,0,0,0,0,0,1739084.127313,0,0.1083374,99.08177,1676782831.147426,0,182416158,0,0,1,1676782831.118168,1,0.82,1
1676782833.955693,67,1676782833.24083,34.04868600100434,-117.8139168425928,216.5499,0.07420031,0.566983,55.96413953154715,29.31605849266102,14.81655827876458,11.92787787682829,-9999,1676782833.941062,43.66374206542969,6.493537902832031,-5.683319091796875,265.4727783203125,253.9896087646484,17.79476356506348,1739086.989400542,0.9953460693359375,0.7023468017578125,0.0720977783203125,1739086.984421542,1.536614894866943,-1.087521553039551,0.4499671757221222,1739086.983291542,-83.38880920410156,75.60234069824219,-300.8088684082031,1739086.975709542,-1.042258045509599,1.222412326987719,-0.6139834512367166,1.187075018882751,-1.218766450881958,0.8649865388870239,0.2297286987304688,-0.1209277510643005,0.5779799222946167,2,0.05771119655837911,0.5976241067782659,-0.5390582415192028,0.590703970458361,0.7682572603225708,0.5761279463768005,-0.2790296971797943,43.66374206542969,6.493537902832031,-5.683319091796875,-1,2,1739080.303064542,4,1,1676782827.265931,0,0,0,0,0,0,0,0,0,1739084.127313,0,0.1083374,99.08177,1676782831.147426,0,182416158,0,0,1,1676782831.118168,1,0.82,1
1676782834.015549,68,1676782833.24083,34.04868600100434,-117.8139168425928,216.5499,0.07420031,0.566983,55.96413953154715,29.31605849266102,14.81655827876458,11.92787787682829,-9999,1676782834.001123,43.35446929931641,6.256629943847656,-8.8551025390625,267.7721252441406,256.2889709472656,17.79523658752441,1739087.049144542,0.831817626953125,0.14556884765625,-0.207672119140625,1739087.044165542,1.895626902580261,-0.2436768412590027,-0.1665298640727997,1739087.043327542,-83.7852783203125,75.54931640625,-304.2177124023438,1739087.035453542,-1.154453396947819,1.101225567230087,-0.5841874130211693,1.815476655960083,-0.4335313737392426,-0.3565762341022491,-0.01572376489639282,-0.233177661895752,0.2704354524612427,2,0.06778375212177049,0.5537825045929248,-0.5716033457183048,0.6016643058714353,0.7438731789588928,0.5515217185020447,-0.3774605989456177,43.35446929931641,6.256629943847656,-8.8551025390625,-1,2,1739080.303064542,4,1,1676782827.265931,0,0,0,0,0,0,0,0,0,1739084.127313,0,0.1083374,99.08177,1676782831.147426,0,182416158,0,0,1,1676782831.118168,1,0.82,1
1676782834.076794,69,1676782833.24083,34.04868600100434,-117.8139168425928,216.5499,0.07420031,0.566983,55.96413953154715,29.31605849266102,14.81655827876458,11.92787787682829,-9999,1676782834.060951,43.37691497802734,5.193099975585938,-10.85086059570312,268.8062133789062,257.3230590820312,17.79565620422363,1739087.108888542,0.7550506591796875,-0.19842529296875,-0.365081787109375,1739087.103910542,-0.2943567931652069,-0.8362088799476624,1.169632077217102,1739087.103361542,-83.92445373535156,73.93907165527344,-305.757568359375,1739087.095197542,-1.227813896697384,1.031105673990286,-0.5377679237758162,0.1088404729962349,-0.8083083629608154,0.8950261473655701,0.07646453380584717,-0.6231822371482849,0.05625388026237488,2,0.08488133849955132,0.5216562295908598,-0.5902372516745902,0.6101555362042848,0.7367831468582153,0.5122202634811401,-0.4413398802280426,43.37691497802734,5.193099975585938,-10.85086059570312,-1,2,1739080.303064542,4,1,1676782827.265931,0,0,0,0,0,0,0,0,0,1739084.127313,0,0.1083374,99.08177,1676782831.147426,0,182416158,0,0,1,1676782831.118168,1,0.82,1
1676782834.135011,70,1676782833.24083,34.04868600100434,-117.8139168425928,216.5499,0.07420031,0.566983,55.96413953154715,29.31605849266102,14.81655827876458,11.92787787682829,-9999,1676782834.120726,43.27565002441406,1.3685302734375,-12.27987670898438,261.6281127929688,250.1449584960938,17.79610824584961,1739087.168633542,0.516815185546875,0.2866668701171875,-0.1503448486328125,1739087.163654542,-1.147251129150391,0.9746447801589966,1.410569310188293,1739087.163396542,-83.77072143554688,69.90708923339844,-305.9201049804688,1739087.154942542,-1.133794352435347,1.049449566013429,-0.475175598319214,-0.9550895094871521,0.6114314794540405,1.702437043190002,-0.2418744564056396,-0.2754267752170563,0.2524411678314209,2,0.08964407904444155,0.5201235660977093,-0.5511764209790134,0.6462506729826309,0.7710798382759094,0.4574945867061615,-0.4428708255290985,43.27565002441406,1.3685302734375,-12.27987670898438,-1,2,1739080.303064542,4,1,1676782827.265931,0,0,0,0,0,0,0,0,0,1739084.127313,0,0.1083374,99.08177,1676782831.147426,0,182416158,0,0,1,1676782831.118168,1,0.82,1
1676782834.196661,71,1676782833.24083,34.04868600100434,-117.8139168425928,216.5499,0.07420031,0.566983,55.96413953154715,29.31605849266102,14.81655827876458,11.92787787682829,-9999,1676782834.18044,44.29740905761719,-1.22271728515625,-7.44500732421875,256.7572937011719,245.2741394042969,17.79661178588867,1739087.228377542,0.979583740234375,0.1721038818359375,-0.176025390625,1739087.223398542,-1.606080293655396,1.62993848323822,1.273954510688782,1739087.223433542,-82.63519287109375,67.39842224121094,-301.0155029296875,1739087.214686542,-1.008100039433897,1.217169464846955,-0.4540747795787408,-1.812659025192261,2.019940853118896,1.226574420928955,0.00316166877746582,-0.1826344430446625,0.1532823145389557,2,0.1073240161234394,0.5769542539009158,-0.4987746521140922,0.6378315083383506,0.8430601954460144,0.4386310279369354,-0.3112106919288635,44.29740905761719,-1.22271728515625,-7.44500732421875,-1,2,1739080.303064542,4,1,1676782827.265931,0,0,0,0,0,0,0,0,0,1739084.127313,0,0.1083374,99.08177,1676782831.147426,0,182416158,0,0,1,1676782831.118168,1,0.82,1
1676782834.254651,72,1676782833.24083,34.04868600100434,-117.8139168425928,216.5499,0.07420031,0.566983,55.96413953154715,29.31605849266102,14.81655827876458,11.92787787682829,-9999,1676782834.240144,44.29197692871094,-4.972076416015625,-4.12451171875,249.7889251708984,238.3057556152344,17.79683494567871,1739087.288122542,0.9278411865234375,0.4047698974609375,-0.01409912109375,1739087.283143542,-0.8785156011581421,1.047835111618042,1.42468273639679,1739087.283468542,-83.02899169921875,63.88459777832031,-297.6561279296875,1739087.274430542,-0.8977643983292587,1.346815299072076,-0.3942577546007235,-0.8671268224716187,0.8676973581314087,1.510933995246887,0.09431815147399902,-0.08981156349182129,0.01168298721313477,2,0.1274657408270375,0.6174269529496039,-0.4427009650898576,0.6376145539775457,0.9002192616462708,0.3841229975223541,-0.2050728797912598,44.29197692871094,-4.972076416015625,-4.12451171875,-1,2,1739080.303064542,4,1,1676782827.265931,0,0,0,0,0,0,0,0,0,1739084.127313,0,0.1083374,99.08177,1676782831.147426,0,182416158,0,0,1,1676782831.118168,1,0.82,1
1676782834.317126,73,1676782833.24083,34.04868600100434,-117.8139168425928,216.5499,0.07420031,0.566983,55.96413953154715,29.31605849266102,14.81655827876458,11.92787787682829,-9999,1676782834.2999,43.60845184326172,-7.874774932861328,-0.456878662109375,242.9465789794922,231.4634094238281,17.7969970703125,1739087.347866542,1.033035278320312,0.6608734130859375,-0.2066497802734375,1739087.342887542,-1.451139450073242,1.18573009967804,0.4871054887771606,1739087.343503542,-83.37748718261719,61.06121826171875,-294.0257568359375,1739087.334175542,-0.8127320517347678,1.462824772990562,-0.3391790373230951,-1.444576382637024,1.387337923049927,0.6848483085632324,-0.002859532833099365,0.2766161262989044,-0.06517135351896286,2,0.1448439023451933,0.6543768002851051,-0.3935051127745782,0.6292574861037968,0.9375366568565369,0.3327130079269409,-0.1016224920749664,43.60845184326172,-7.874774932861328,-0.456878662109375,-1,2,1739080.303064542,4,1,1676782827.265931,0,0,0,0,0,0,0,0,0,1739084.127313,0,0.1083374,99.08177,1676782831.147426,0,182416158,0,0,1,1676782831.118168,1,0.82,1
1676782834.375343,74,1676782834.191138,34.04868600100443,-117.8139168425928,216.5499,0.07420031,0.6339062,-1,-1,14.81655827876458,11.92787787682829,-9999,1676782834.359312,43.54720306396484,-7.547924041748047,1.4583740234375,239.1715698242188,227.6884002685547,17.79721069335938,1739087.407610542,0.850982666015625,0.59161376953125,-0.0648651123046875,1739087.402632542,-0.929707407951355,0.3642248213291168,-0.6803604364395142,1739087.403543542,-83.6512451171875,62.17597961425781,-292.5237426757812,1739087.393919542,-0.7212545299098935,1.547337017774531,-0.360713099953562,-1.166174054145813,0.4672172069549561,-0.7492391467094421,-0.09299600124359131,0.2982577681541443,-0.07874512672424316,2,0.1225014170430604,0.6884908219259769,-0.3656075593750478,0.6142515332201274,0.9353879690170288,0.3529415428638458,-0.02194758132100105,43.54720306396484,-7.547924041748047,1.4583740234375,-1,2,1739080.303064542,4,1,1676782827.265931,0,0,0,0,0,0,0,0,0,1739084.127313,0,0.1083374,99.08177,1676782831.147426,0,182416158,0,0,1,1676782831.118168,1,0.82,1
1676782834.434322,75,1676782834.191138,34.04868600100443,-117.8139168425928,216.5499,0.07420031,0.6339062,-1,-1,14.81655827876458,11.92787787682829,-9999,1676782834.419432,43.49103546142578,-7.008502960205078,2.31695556640625,237.8869781494141,226.40380859375,17.79741477966309,1739087.467355542,1.040878295898438,0.4267425537109375,0.0730438232421875,1739087.462376542,0.8306492567062378,1.297271609306335,0.1382388323545456,1739087.463582542,-83.66476440429688,62.51339721679688,-291.3426208496094,1739087.453664542,-0.6905612641643726,1.580557106020384,-0.3778575375923372,0.4502337574958801,1.032486915588379,0.2188165038824081,0.06088250875473022,0.06049808859825134,0.1409218311309814,2,0.111863320189729,0.7014432544483726,-0.3594893600741257,0.6051705891408585,0.9294130206108093,0.3689299821853638,0.009072083048522472,43.49103546142578,-7.008502960205078,2.31695556640625,-1,2,1739080.303064542,4,1,1676782827.265931,0,0,0,0,0,0,0,0,0,1739084.127313,0,0.1083374,99.08177,1676782831.147426,0,182416158,0,0,1,1676782831.118168,1,0.82,1
1676782834.493415,76,1676782834.191138,34.04868600100443,-117.8139168425928,216.5499,0.07420031,0.6339062,-1,-1,14.81655827876458,11.92787787682829,-9999,1676782834.479199,43.21504974365234,-6.011562347412109,6.0159912109375,242.9531402587891,231.469970703125,17.79773330688477,1739087.527099542,0.6730194091796875,0.2644195556640625,-0.2913360595703125,1739087.522121542,1.001930475234985,0.4848239421844482,0.8460231423377991,1739087.523618542,-83.95950317382812,63.19587707519531,-287.3830261230469,1739087.513408542,-0.7714971799298039,1.620732015208429,-0.3890338999806989,1.255100965499878,0.6928727626800537,0.4644056558609009,-0.08502650260925293,-0.0928720235824585,-0.1910061836242676,2,0.144034877469654,0.7087640651202606,-0.3841923634667643,0.573849897901457,0.9241225719451904,0.3792946934700012,0.04618509113788605,43.21504974365234,-6.011562347412109,6.0159912109375,-1,2,1739080.303064542,4,1,1676782827.265931,0,0,0,0,0,0,0,0,0,1739084.127313,0,0.1083374,99.08177,1676782831.147426,0,182416158,0,0,1,1676782831.118168,1,0.82,1
1676782834.554858,77,1676782834.191138,34.04868600100443,-117.8139168425928,216.5499,0.07420031,0.6339062,-1,-1,14.81655827876458,11.92787787682829,-9999,1676782834.538895,42.61164855957031,-7.745296478271484,7.185150146484375,241.6364288330078,230.1532592773438,17.79797744750977,1739087.586844542,1.137069702148438,0.2386932373046875,-0.1208343505859375,1739087.581865542,0.01265507470816374,0.3658634722232819,0.1896519511938095,1739087.583655542,-84.19789123535156,61.500244140625,-287.0907897949219,1739087.573153542,-0.8095520551206115,1.63443461894648,-0.3436112848361469,0.1913733780384064,0.1158185750246048,0.3392694592475891,0.1160562634468079,-0.01390677690505981,-0.367311954498291,2,0.1754299846855055,0.7065148513405466,-0.3800986585389613,0.5706015109627318,0.9396383166313171,0.3368894755840302,0.05987782776355743,42.61164855957031,-7.745296478271484,7.185150146484375,-1,2,1739080.303064542,4,1,1676782827.265931,0,0,0,0,0,0,0,0,0,1739084.127313,0,0.1083374,99.08177,1676782831.147426,0,182416158,0,0,1,1676782831.118168,1,0.82,1
1676782834.613132,78,1676782834.191138,34.04868600100443,-117.8139168425928,216.5499,0.07420031,0.6339062,-1,-1,14.81655827876458,11.92787787682829,-9999,1676782834.598359,42.84761047363281,-8.055522918701172,7.726593017578125,238.6281280517578,227.1449584960938,17.79822540283203,1739087.646588542,0.835845947265625,0.3547821044921875,0.345306396484375,1739087.641609542,-1.140724539756775,0.5749951004981995,-0.9198545217514038,1739087.643689542,-84.04161071777344,61.83572387695312,-286.5111694335938,1739087.632897542,-0.762183680942249,1.668717907066511,-0.3432591904382467,-1.278436660766602,0.488246887922287,-0.7148354053497314,-0.02598839998245239,-0.05034887790679932,0.1234532669186592,2,0.1650239601947926,0.7202763408397642,-0.3635940914462992,0.5672464494377993,0.9371518492698669,0.336557924747467,0.09206183254718781,42.84761047363281,-8.055522918701172,7.726593017578125,-1,2,1739080.303064542,4,1,1676782827.265931,0,0,0,0,0,0,0,0,0,1739084.127313,0,0.1083374,99.08177,1676782831.147426,0,182416158,0,0,1,1676782831.118168,1,0.82,1
1676782834.677169,79,1676782834.191138,34.04868600100443,-117.8139168425928,216.5499,0.07420031,0.6339062,-1,-1,14.81655827876458,11.92787787682829,-9999,1676782834.658181,43.03836822509766,-5.579078674316406,8.80194091796875,240.0044097900391,228.521240234375,17.79849243164062,1739087.706333542,0.5695648193359375,0.200714111328125,0.3985595703125,1739087.701354542,0.5561495423316956,0.459176629781723,-0.7641394734382629,1739087.703725542,-84.01968383789062,64.54164123535156,-285.0628051757812,1739087.692641542,-0.7125502440522898,1.723323629477981,-0.4032487573496356,0.2633117735385895,0.5432277321815491,-0.8703193664550781,-0.2788177132606506,-0.1963026523590088,0.3061729669570923,2,0.1371239379659991,0.7423422253045374,-0.3649594970268281,0.544912532695749,0.9091125130653381,0.3924085795879364,0.1397499144077301,43.03836822509766,-5.579078674316406,8.80194091796875,-1,2,1739080.303064542,4,1,1676782827.265931,0,0,0,0,0,0,0,0,0,1739085.127893,0,0.09776306,99.08186,1676782831.147426,0,182416158,0,0,1,1676782831.118168,1,0.82,1
1676782834.732427,80,1676782834.191138,34.04868600100443,-117.8139168425928,216.5499,0.07420031,0.6339062,-1,-1,14.81655827876458,11.92787787682829,-9999,1676782834.718126,43.13717651367188,-2.809860229492188,10.33941650390625,245.5323944091797,234.0492248535156,17.79849433898926,1739087.766077542,0.912445068359375,-0.0031585693359375,0.1431732177734375,1739087.761098542,0.6343782544136047,0.3108478784561157,-1.151582002639771,1739087.763759542,-84.03640747070312,67.5966796875,-283.808837890625,1739087.752386542,-0.7581781919751228,1.724862197738848,-0.46025171704207,0.7858831286430359,0.2711089551448822,-1.163055658340454,0.06125044822692871,-0.2943935394287109,-0.0002662241458892822,2,0.1357711261183499,0.7418291025967105,-0.395347286217156,0.5243625967651124,0.8853283524513245,0.4441736340522766,0.1374884396791458,43.13717651367188,-2.809860229492188,10.33941650390625,-1,2,1739080.303064542,4,1,1676782827.265931,0,0,0,0,0,0,0,0,0,1739085.127893,0,0.09776306,99.08186,1676782831.147426,0,182416158,0,0,1,1676782831.118168,1,0.82,1
1676782834.796075,81,1676782834.191138,34.04868600100443,-117.8139168425928,216.5499,0.07420031,0.6339062,-1,-1,14.81655827876458,11.92787787682829,-9999,1676782834.777653,42.61637878417969,0.49127197265625,12.49813842773438,252.6824951171875,241.1993255615234,17.79781150817871,1739087.82582575,1.067642211914062,0.291229248046875,0.157318115234375,1739087.82084675,1.617060780525208,1.066328644752502,-1.257098078727722,1739087.82379975,-84.84616088867188,71.18930053710938,-280.8785705566406,1739087.81213375,-0.8043457591000454,1.74345057695888,-0.5320908998777472,1.460866928100586,1.091711163520813,-1.148855209350586,0.1858693361282349,-0.2548338174819946,0.1032658964395523,2,0.1333765209724634,0.7458109056754076,-0.4282100961035581,0.4925576113501129,0.8489360213279724,0.5073362588882446,0.1480464041233063,42.61637878417969,0.49127197265625,12.49813842773438,-1,2,1739080.303064542,4,1,1676782827.265931,0,0,0,0,0,0,0,0,0,1739085.127893,0,0.09776306,99.08186,1676782831.147426,0,182416158,0,0,1,1676782831.118168,1,0.82,1
1676782834.852112,82,1676782834.191138,34.04868600100443,-117.8139168425928,216.5499,0.07420031,0.6339062,-1,-1,14.81655827876458,11.92787787682829,-9999,1676782834.837411,41.20697784423828,6.823577880859375,14.69720458984375,266.3505249023438,254.8673706054688,17.79736518859863,1739087.88556975,1.00225830078125,0.4676666259765625,0.2415008544921875,1739087.88059075,1.973743796348572,1.526500225067139,-2.747173309326172,1739087.88383475,-86.68502807617188,77.93392944335938,-279.2838134765625,1739087.87187875,-0.9106432551274533,1.745474053677205,-0.6578113541590926,2.017368316650391,1.194912791252136,-2.675997257232666,0.2560644149780273,-0.1652652621269226,0.03378413617610931,2,0.13237471406267,0.7424554219040844,-0.4897341459393244,0.4374897918879836,0.7792901992797852,0.6113863587379456,0.1375262439250946,41.20697784423828,6.823577880859375,14.69720458984375,-1,2,1739080.303064542,4,1,1676782827.265931,0,0,0,0,0,0,0,0,0,1739085.127893,0,0.09776306,99.08186,1676782831.147426,0,182416158,0,0,1,1676782831.118168,1,0.82,1
1676782834.916137,83,1676782834.191138,34.04868600100443,-117.8139168425928,216.5499,0.07420031,0.6339062,-1,-1,14.81655827876458,11.92787787682829,-9999,1676782834.897356,38.36695098876953,12.35707092285156,18.2698974609375,281.9842529296875,270.5010986328125,17.79773902893066,1739087.94531475,0.7122039794921875,0.530731201171875,-0.3525543212890625,1739087.94033575,0.8253242969512939,0.7340966463088989,-1.065743207931519,1739087.94387375,-89.76710510253906,83.54559326171875,-274.7699584960938,1739087.93162275,-0.9764409215436817,1.825697135661335,-0.790882173661114,0.7994424104690552,1.663776636123657,-1.064145445823669,0.2453155517578125,-0.1089537143707275,-0.1139464378356934,2,0.1344605965914364,0.7553664086723464,-0.533880178401996,0.3554067092433579,0.6804962754249573,0.7109739184379578,0.1773161292076111,38.36695098876953,12.35707092285156,18.2698974609375,-1,2,1739080.303064542,4,1,1676782827.265931,0,0,0,0,0,0,0,0,0,1739085.127893,0,0.09776306,99.08186,1676782831.147426,0,182416158,0,0,1,1676782831.118168,1,0.82,1
1676782834.971417,84,1676782834.191138,34.04868600100443,-117.8139168425928,216.5499,0.07420031,0.6339062,-1,-1,14.81655827876458,11.92787787682829,-9999,1676782834.956739,36.17123413085938,15.50123596191406,20.29550170898438,288.2495422363281,276.7663879394531,17.7977237701416,1739088.00505875,0.1139068603515625,0.3451995849609375,-0.2091522216796875,1739088.00007975,0.871285617351532,-0.7877894043922424,-2.031130313873291,1739088.00390075,-91.35372924804688,86.56733703613281,-275.4479675292969,1739087.99136775,-0.9891605274211553,1.848082945485912,-0.866505677963387,0.5418850183486938,-0.5506454110145569,-1.765904188156128,-0.3914523124694824,-0.4843763709068298,-0.4225496053695679,2,0.1211310200520676,0.7575961586797075,-0.554493996764115,0.3223534327586513,0.6227602958679199,0.7620710730552673,0.1772493273019791,36.17123413085938,15.50123596191406,20.29550170898438,-1,2,1739080.303064542,4,1,1676782827.265931,0,0,0,0,0,0,0,0,0,1739085.127893,0,0.09776306,99.08186,1676782831.147426,0,182416158,0,0,1,1676782831.118168,1,0.82,1
1676782835.034845,85,1676782834.191138,34.04868600100443,-117.8139168425928,216.5499,0.07420031,0.6339062,-1,-1,14.81655827876458,11.92787787682829,-9999,1676782835.016793,34.06074523925781,22.38212585449219,16.962646484375,298.3709411621094,286.8877868652344,17.79838943481445,1739088.06480375,-0.162200927734375,1.284500122070312,-0.1138153076171875,1739088.05982475,3.739212512969971,0.9234827756881714,-3.175178289413452,1739088.06393975,-95.75440979003906,95.96907043457031,-278.6846923828125,1739088.05111275,-1.1297265930194,1.686928929389841,-1.043366668085385,3.340603590011597,-0.2300314605236053,-3.39540696144104,-0.5638123750686646,-0.2246383428573608,-0.3874824047088623,2,0.06678975214775135,0.7243611437676547,-0.622980712822341,0.2876371745865297,0.4999238550662994,0.8641036152839661,0.05831987410783768,34.06074523925781,22.38212585449219,16.962646484375,-1,2,1739080.303064542,4,1,1676782827.265931,0,0,0,0,0,0,0,0,0,1739085.127893,0,0.09776306,99.08186,1676782831.147426,0,182416158,0,0,1,1676782831.118168,1,0.82,1
1676782835.091564,86,1676782834.191138,34.04868600100443,-117.8139168425928,216.5499,0.07420031,0.6339062,-1,-1,14.81655827876458,11.92787787682829,-9999,1676782835.07675,28.39321899414062,28.14815521240234,19.02130126953125,318.8519287109375,307.3687744140625,17.80004119873047,1739088.12454775,0.1712188720703125,1.12908935546875,-1.013946533203125,1739088.11956975,1.08168625831604,2.648522138595581,1.176274299621582,1739088.12397775,-100.053466796875,97.27702331542969,-273.4679565429688,1739088.11085675,-1.513027559091202,1.631167692408743,-1.077733037323158,1.086085796356201,4.811413764953613,1.136713862419128,-0.1133179366588593,2.075869560241699,-1.172463655471802,2,0.1731551411278475,0.6959140017993648,-0.6755391628902528,0.1713702125855646,0.4724640250205994,0.8808870315551758,0.02855800092220306,28.39321899414062,28.14815521240234,19.02130126953125,-1,2,1739080.303064542,4,1,1676782827.265931,0,0,0,0,0,0,0,0,0,1739085.127893,0,0.09776306,99.08186,1676782831.147426,0,182416158,0,0,1,1676782831.118168,1,0.82,1
1676782835.153523,87,1676782834.191138,34.04868600100443,-117.8139168425928,216.5499,0.07420031,0.6339062,-1,-1,14.81655827876458,11.92787787682829,-9999,1676782835.136385,30.43418121337891,27.92322540283203,18.30514526367188,312.171142578125,300.68798828125,17.80083465576172,1739088.18429275,0.4730072021484375,0.8007354736328125,0.521820068359375,1739088.17931375,-1.933134317398071,-4.604814052581787,-1.002278327941895,1739088.18401375,-94.97947692871094,97.30094909667969,-279.3030090332031,1739088.17060175,-1.558101242477429,1.482947521143822,-1.054953805168087,-1.894395232200623,-5.846853256225586,-0.9318347573280334,0.08585888147354126,0.2309374809265137,0.1250644326210022,2,0.1458778041563862,0.6760776703391365,-0.6896294005833417,0.2145927382515283,0.4913659691810608,0.8698774576187134,-0.04327730089426041,30.43418121337891,27.92322540283203,18.30514526367188,-1,2,1739080.303064542,4,1,1676782827.265931,0,0,0,0,0,0,0,0,0,1739085.127893,0,0.09776306,99.08186,1676782831.147426,0,182416158,0,0,1,1676782831.118168,1,0.82,1
1676782835.2103,88,1676782834.191138,34.04868600100443,-117.8139168425928,216.5499,0.07420031,0.6339062,-1,-1,14.81655827876458,11.92787787682829,-9999,1676782835.19577,31.48763275146484,28.33234405517578,14.2255859375,308.1509094238281,296.6677551269531,17.80123710632324,1739088.24403675,0.5695037841796875,0.7951202392578125,-0.04327392578125,1739088.23905875,0.9740903377532959,1.15097451210022,-0.5460596084594727,1739088.24404975,-96.51083374023438,98.42367553710938,-280.1408081054688,1739088.23034575,-1.464992376320955,1.463407357072614,-1.106404950001822,0.7686598896980286,1.306521654129028,-0.5518889427185059,0.01269373297691345,-0.1332299709320068,0.3064277768135071,2,0.08950217314440595,0.6840956990572915,-0.6843536067991073,0.2359294531062235,0.4452989101409912,0.8940943479537964,-0.0480048693716526,31.48763275146484,28.33234405517578,14.2255859375,-1,2,1739080.303064542,4,1,1676782827.265931,0,0,0,0,0,0,0,0,0,1739085.127893,0,0.09776306,99.08186,1676782831.147426,0,182416158,0,0,1,1676782831.118168,1,0.82,1
1676782835.276381,89,1676782834.191138,34.04868600100443,-117.8139168425928,216.5499,0.07420031,0.6339062,-1,-1,14.81655827876458,11.92787787682829,-9999,1676782835.275398,30.86093139648438,29.95574188232422,11.80712890625,309.05419921875,297.571044921875,17.80128479003906,1739088.30378175,0.6347503662109375,0.8459625244140625,-0.1720123291015625,1739088.29880275,0.635851263999939,-1.103217124938965,0.0921965092420578,1739088.30408675,-96.25254821777344,99.43446350097656,-282.8313598632812,1739088.29009075,-1.589829565247566,1.34913960838438,-1.12062026772538,0.600727915763855,-1.057720422744751,-0.02696515247225761,0.3082789182662964,-0.05900090932846069,-0.1803405284881592,2,0.08696746813869555,0.6667881819034192,-0.7046824255050671,0.2263910788483229,0.424478679895401,0.9003705382347107,-0.09566035866737366,30.54799652099609,29.95388031005859,13.00762939453125,-1,2,1739088.26893075,4,1,1676782835.231797,0,0,0,0,0,0,0,0,0,1739085.127893,0,0.09776306,99.08186,1676782831.147426,0,182416158,0,0,1,1676782831.118168,1,0.82,1
1676782835.329722,90,1676782835.14112,34.04869501551567,-117.8139010671359,216.5331,0.3558871,0.6192946,75.02796161617498,32.85871109768051,15.60860218636636,12.14749337900839,-9999,1676782835.316651,31.14434814453125,30.63109588623047,9.3955078125,307.271484375,295.788330078125,17.80142211914062,1739088.36352675,0.593414306640625,0.8020477294921875,0.0099945068359375,1739088.35854775,0.1687711775302887,-1.606443762779236,-0.7496833205223083,1739088.36412275,-95.96916198730469,100.7674560546875,-286.7188110351562,1739088.34983475,-1.677910620432896,1.180331138559304,-1.128382715830765,0.3868906497955322,-1.694338202476501,-0.8198238611221313,0.2495792806148529,-0.1717721819877625,0.07081867754459381,2,0.05295563199801429,0.6447636182435585,-0.7211663222986706,0.2477794798993802,0.3958980143070221,0.9037209749221802,-0.1629511564970016,31.14434814453125,30.63109588623047,9.3955078125,-1,2,1739088.26893075,4,1,1676782835.231797,0,0,0,0,0,0,0,0,0,1739085.127893,0,0.09776306,99.08186,1676782831.147426,0,182416158,0,0,1,1676782831.118168,1,0.82,1
1676782835.396268,91,1676782835.14112,34.04869501551567,-117.8139010671359,216.5331,0.3558871,0.6192946,75.02796161617498,32.85871109768051,15.60860218636636,12.14749337900839,-9999,1676782835.395166,30.66085052490234,31.74855041503906,7.058807373046875,305.5102844238281,294.0271301269531,17.80153656005859,1739088.42327075,0.5877227783203125,0.8787689208984375,-0.1119384765625,1739088.41829175,-0.2599695324897766,0.09160394966602325,-0.3759816288948059,1739088.42415675,-96.43783569335938,101.1447601318359,-287.3016357421875,1739088.40957975,-1.672556972681395,1.118854735968528,-1.160679470635878,-0.3260761499404907,-0.1292364448308945,-0.3364409506320953,0.154757171869278,-0.01131242513656616,0.2524481415748596,2,0.01790591937202834,0.6423527056009273,-0.721062562530157,0.259096980861466,0.3586858808994293,0.9170742630958557,-0.1741247624158859,30.69325256347656,31.76922607421875,6.844970703125,-1,2,1739088.26893075,4,1,1676782835.231797,0,0,0,0,0,0,0,0,0,1739085.127893,0,0.09776306,99.08186,1676782831.147426,0,182416158,0,0,1,1676782831.118168,1,0.82,1
1676782835.44942,92,1676782835.14112,34.04869501551567,-117.8139010671359,216.5331,0.3558871,0.6192946,75.02796161617498,32.85871109768051,15.60860218636636,12.14749337900839,-9999,1676782835.434742,30.10002899169922,32.22649383544922,7.50347900390625,305.7698669433594,294.2867126464844,17.80158233642578,1739088.48301575,0.7154998779296875,0.8411102294921875,-0.2440032958984375,1739088.47803675,-0.08404243737459183,-1.040506362915039,-0.2706248462200165,1739088.48418875,-97.34243774414062,102.0281066894531,-286.8406982421875,1739088.46932475,-1.679752439162195,1.108079134531334,-1.184903186885095,-0.07378263771533966,-0.8293068408966064,-0.3052681982517242,0.345856100320816,-0.08486419916152954,-0.1225764602422714,2,0.007974145751635464,0.6449267123744014,-0.7213880188375628,0.2522007111745552,0.3368068635463715,0.9264626502990723,-0.1680119037628174,30.10002899169922,32.22649383544922,7.50347900390625,-1,2,1739088.26893075,4,1,1676782835.231797,0,0,0,0,0,0,0,0,0,1739085.127893,0,0.09776306,99.08186,1676782831.147426,0,182416158,0,0,1,1676782831.118168,1,0.82,1
1676782835.517174,93,1676782835.14112,34.04869501551567,-117.8139010671359,216.5331,0.3558871,0.6192946,75.02796161617498,32.85871109768051,15.60860218636636,12.14749337900839,-9999,1676782835.514364,30.23150634765625,32.96293640136719,6.35247802734375,303.4263916015625,291.9432373046875,17.80178260803223,1739088.54275975,0.7638092041015625,0.8646392822265625,0.0549163818359375,1739088.53778175,-0.2423146367073059,-0.2174937129020691,0.04085102677345276,1739088.54422275,-96.89830017089844,102.4337158203125,-287.91552734375,1739088.52906875,-1.685005842785889,1.054849606442283,-1.197996109932537,-0.1942273080348969,-0.4229530692100525,-0.04116890206933022,0.4726623296737671,-0.008047521114349365,0.198843240737915,2,-0.01404659206413034,0.6402780557265819,-0.7214959979023051,0.2632304147363687,0.3168121874332428,0.9313110709190369,-0.179693415760994,30.08853912353516,32.88230895996094,6.21630859375,-1,2,1739088.26893075,4,1,1676782835.231797,0,0,0,0,0,0,0,0,0,1739085.127893,0,0.09776306,99.08186,1676782831.147426,0,182416158,0,0,1,1676782831.118168,1,0.82,1
1676782835.568732,94,1676782835.14112,34.04869501551567,-117.8139010671359,216.5331,0.3558871,0.6192946,75.02796161617498,32.85871109768051,15.60860218636636,12.14749337900839,-9999,1676782835.554304,30.83493041992188,32.34194946289062,6.085296630859375,302.5661926269531,291.0830383300781,17.80191040039062,1739088.60250475,0.8088531494140625,0.8023223876953125,0.0262298583984375,1739088.59752575,-1.03174877166748,0.3796951174736023,1.124932765960693,1739088.60425975,-95.5111083984375,100.7720794677734,-286.8339233398438,1739088.58881375,-1.613926879695155,1.137575939716971,-1.18504563554231,-0.6876783967018127,0.4209872186183929,0.9530953764915466,0.4487720131874084,-0.1384302973747253,0.1644505262374878,2,-0.002790473947621552,0.6488582951359297,-0.7128139585885181,0.2662169201955287,0.3414959311485291,0.9265162348747253,-0.1579502522945404,30.83493041992188,32.34194946289062,6.085296630859375,-1,2,1739088.26893075,4,1,1676782835.231797,0,0,0,0,0,0,0,0,0,1739085.127893,0,0.09776306,99.08186,1676782831.147426,0,182416158,0,0,1,1676782831.118168,1,0.82,1
1676782835.63466,95,1676782835.14112,34.04869501551567,-117.8139010671359,216.5331,0.3558871,0.6192946,75.02796161617498,32.85871109768051,15.60860218636636,12.14749337900839,-9999,1676782835.614073,32.63259124755859,29.01589202880859,10.61801147460938,298.666748046875,287.18359375,17.80225372314453,1739088.66224975,0.5379486083984375,0.9993133544921875,0.073516845703125,1739088.65727075,-1.815129041671753,1.183882117271423,1.77441143989563,1739088.66429675,-93.98899841308594,96.10243225097656,-281.330322265625,1739088.64855775,-1.349738725581409,1.441756553719647,-1.128724541360391,-1.769575715065002,1.35202944278717,1.660711288452148,0.1262198388576508,-0.02467101812362671,0.158353865146637,2,0.03471139250401351,0.6864904954664547,-0.6722303300338205,0.2750134227690104,0.424256294965744,0.903867244720459,-0.05505183711647987,32.63259124755859,29.01589202880859,10.61801147460938,-1,2,1739088.26893075,4,1,1676782835.231797,0,0,0,0,0,0,0,0,0,1739085.127893,0,0.09776306,99.08186,1676782831.147426,0,182416158,0,0,1,1676782831.118168,1,0.82,1
1676782835.688301,96,1676782835.14112,34.04869501551567,-117.8139010671359,216.5331,0.3558871,0.6192946,75.02796161617498,32.85871109768051,15.60860218636636,12.14749337900839,-9999,1676782835.673916,34.49428558349609,23.59442901611328,14.7025146484375,292.1524353027344,280.6692810058594,17.80264663696289,1739088.72199375,0.4726104736328125,1.552566528320312,0.03759765625,1739088.71701575,-1.40549898147583,0.5131157636642456,1.280186533927917,1739088.72433675,-92.11421203613281,90.82476806640625,-278.4981079101562,1739088.70830275,-1.143610343419549,1.672690470170227,-1.024080835398104,-1.409288644790649,0.3708087205886841,1.4363032579422,0.05582547187805176,0.7477225065231323,-0.1196539402008057,2,0.07400393826016993,0.7217784924020327,-0.6219537297441746,0.2945043240989125,0.5171878337860107,0.8542366623878479,0.05288155004382133,34.49428558349609,23.59442901611328,14.7025146484375,-1,2,1739088.26893075,4,1,1676782835.231797,0,0,0,0,0,0,0,0,0,1739086.128471,0,0.0369873,99.08259,1676782831.147426,0,182416158,0,0,1,1676782831.118168,1,0.82,1
1676782835.755194,97,1676782835.14112,34.04869501551567,-117.8139010671359,216.5331,0.3558871,0.6192946,75.02796161617498,32.85871109768051,15.60860218636636,12.14749337900839,-9999,1676782835.753545,34.51245880126953,18.637451171875,20.125244140625,288.9740600585938,277.4909057617188,17.80316543579102,1739088.78173875,0.489044189453125,0.83990478515625,-0.0380706787109375,1739088.77675975,-0.6795974373817444,1.537225604057312,1.205517649650574,1739088.78437575,-92.7550048828125,87.83282470703125,-273.90283203125,1739088.76804775,-1.029076946617033,1.83788093804729,-0.9481253539538882,-0.8477672338485718,1.666428446769714,1.161237239837646,-0.1962266564369202,0.1234522461891174,-0.08485911786556244,2,0.106996126057986,0.7520053214573826,-0.5815480567115944,0.2912761551492219,0.5625292062759399,0.8123236298561096,0.1539203524589539,34.93568420410156,19.7274169921875,18.511962890625,-1,2,1739088.26893075,4,1,1676782835.231797,0,0,0,0,0,0,0,0,0,1739086.128471,0,0.0369873,99.08259,1676782831.147426,0,182416158,0,0,1,1676782831.118168,1,0.82,1
1676782835.80842,98,1676782835.14112,34.04869501551567,-117.8139010671359,216.5331,0.3558871,0.6192946,75.02796161617498,32.85871109768051,15.60860218636636,12.14749337900839,-9999,1676782835.793223,34.29335784912109,16.64129638671875,22.4710693359375,287.6143493652344,276.1311950683594,17.80337524414062,1739088.841479625,0.43865966796875,0.617919921875,-0.0372161865234375,1739088.836500625,-0.3681050539016724,0.6255936026573181,1.106103777885437,1739088.844408625,-92.70164489746094,85.14273071289062,-271.640380859375,1739088.827787625,-1.020128979122532,1.911092669531876,-0.8744256870113863,-0.3653506338596344,0.6159929633140564,1.093514204025269,-0.09112024307250977,-0.1533752083778381,-0.3302707672119141,2,0.1479280290291295,0.7649591222085933,-0.5570451211186273,0.2874987636479912,0.6046547889709473,0.7671752572059631,0.2140903174877167,34.29335784912109,16.64129638671875,22.4710693359375,-1,2,1739088.26893075,4,1,1676782835.231797,0,0,0,0,0,0,0,0,0,1739086.128471,0,0.0369873,99.08259,1676782831.147426,0,182416158,0,0,1,1676782831.118168,1,0.82,1
1676782835.875347,99,1676782835.14112,34.04869501551567,-117.8139010671359,216.5331,0.3558871,0.6192946,75.02796161617498,32.85871109768051,15.60860218636636,12.14749337900839,-9999,1676782835.873041,33.54300689697266,13.97941589355469,24.513427734375,287.8732299804688,276.3900756835938,17.80378723144531,1739088.901223625,0.382080078125,0.687652587890625,-0.00823974609375,1739088.896244625,0.7868130803108215,1.211605906486511,0.8712978959083557,1739088.904444625,-93.77630615234375,83.34745788574219,-269.8206176757812,1739088.887532625,-1.052474895709744,1.945757403707677,-0.8131559768453402,0.6077853441238403,1.262648940086365,0.9703079462051392,-0.2686442136764526,-0.0226631760597229,-0.1628900468349457,2,0.1888007849599511,0.7682413544727866,-0.5423326552943341,0.2829043919168285,0.6394633650779724,0.7264596223831177,0.2516810297966003,34.02699279785156,14.40122222900391,24.176513671875,-1,2,1739088.26893075,4,1,1676782835.231797,0,0,0,0,0,0,0,0,0,1739086.128471,0,0.0369873,99.08259,1676782831.147426,0,182416158,0,0,1,1676782831.118168,1,0.82,1
1676782835.927211,100,1676782835.14112,34.04869501551567,-117.8139010671359,216.5331,0.3558871,0.6192946,75.02796161617498,32.85871109768051,15.60860218636636,12.14749337900839,-9999,1676782835.912905,32.82639312744141,14.42254638671875,25.4017333984375,290.5410766601562,279.0579223632812,17.80393600463867,1739088.960968625,0.1663055419921875,0.539581298828125,-0.061370849609375,1739088.955989625,0.9606770277023315,0.4809655547142029,-0.08440037071704865,1739088.934461625,-94.20176696777344,84.12026977539062,-268.8207397460938,1739088.947277625,-1.14260623948729,1.936656023934612,-0.8034838873147767,0.9343193769454956,0.5264672040939331,0.02945748530328274,-0.4128460288047791,-0.1549901366233826,-0.3886573016643524,2,0.2236597632497644,0.7577286605015632,-0.5530379925671536,0.2645234276679084,0.6482586860656738,0.7197789549827576,0.2483528256416321,32.82639312744141,14.42254638671875,25.4017333984375,-1,2,1739088.26893075,4,1,1676782835.231797,0,0,0,0,0,0,0,0,0,1739086.128471,0,0.0369873,99.08259,1676782831.147426,0,182416158,0,0,1,1676782831.118168,1,0.82,1
1676782835.988277,101,1676782835.14112,34.04869501551567,-117.8139010671359,216.5331,0.3558871,0.6192946,75.02796161617498,32.85871109768051,15.60860218636636,12.14749337900839,-9999,1676782835.972786,32.26614379882812,16.55311584472656,24.91317749023438,295.2344665527344,283.7513122558594,17.80387687683105,1739089.020713625,0.3207244873046875,0.5882568359375,0.3296051025390625,1739089.015734625,1.422659635543823,-0.1507128179073334,-0.5626404285430908,1739088.994501625,-95.18911743164062,85.48965454101562,-269.0487060546875,1739089.007021625,-1.227133530022518,1.894028888295037,-0.8380440176276396,1.37439751625061,0.02316040173172951,-0.4565887749195099,-0.4542996883392334,-0.2526288628578186,-0.05202451348304749,2,0.2326139472644518,0.7430518659218748,-0.5772337690309697,0.2461011233852252,0.6342770457267761,0.7433361411094666,0.2124706506729126,32.26614379882812,16.55311584472656,24.91317749023438,-1,2,1739088.26893075,4,1,1676782835.231797,0,0,0,0,0,0,0,0,0,1739086.128471,0,0.0369873,99.08259,1676782831.147426,0,182416158,0,0,1,1676782831.118168,1,0.82,1
1676782836.046955,102,1676782835.14112,34.04869501551567,-117.8139010671359,216.5331,0.3558871,0.6192946,75.02796161617498,32.85871109768051,15.60860218636636,12.14749337900839,-9999,1676782836.032351,32.37155914306641,19.58165740966797,23.8143310546875,298.9408569335938,287.4577026367188,17.80414581298828,1739089.080457625,1.665756225585938,0.708892822265625,0.3942108154296875,1739089.075479625,-0.1033274531364441,0.2758808434009552,1.197817087173462,1739089.054543625,-94.67887878417969,88.81428527832031,-270.8436279296875,1739089.066766625,-1.317132068232303,1.813723247196143,-0.8834079073159418,0.3313708603382111,0.2819407284259796,0.4862729609012604,0.6400609016418457,-0.09912341833114624,0.5424683094024658,2,0.2273907021682213,0.724298800623341,-0.6071870678259886,0.2345390066824998,0.6158900260925293,0.7729057669639587,0.1526305675506592,32.37155914306641,19.58165740966797,23.8143310546875,-1,2,1739088.26893075,4,1,1676782835.231797,0,0,0,0,0,0,0,0,0,1739086.128471,0,0.0369873,99.08259,1676782831.147426,0,182416158,0,0,1,1676782831.118168,1,0.82,1
1676782836.10808,103,1676782835.14112,34.04869501551567,-117.8139010671359,216.5331,0.3558871,0.6192946,75.02796161617498,32.85871109768051,15.60860218636636,12.14749337900839,-9999,1676782836.091999,33.07817840576172,16.59455108642578,23.94854736328125,294.5213928222656,283.0382385253906,17.80416679382324,1739089.140202625,0.731536865234375,0.253814697265625,0.4001617431640625,1739089.135223625,0.8985060453414917,1.270211219787598,0.7243057489395142,1739089.114587625,-94.1815185546875,86.0543212890625,-270.6793823242188,1739089.126511625,-1.3581810010686,1.798116419979316,-0.7960626432906359,0.7904945015907288,1.204085111618042,0.9436036944389343,0.6762279868125916,-0.3535692691802979,0.495929479598999,2,0.2654883134690224,0.7129804221747318,-0.596414312535833,0.2558607952616987,0.6815295219421387,0.7146073579788208,0.1576502472162247,33.07817840576172,16.59455108642578,23.94854736328125,-1,2,1739088.26893075,4,1,1676782835.231797,0,0,0,0,0,0,0,0,0,1739086.128471,0,0.0369873,99.08259,1676782831.147426,0,182416158,0,0,1,1676782831.118168,1,0.82,1
1676782836.166453,104,1676782835.14112,34.04869501551567,-117.8139010671359,216.5331,0.3558871,0.6192946,75.02796161617498,32.85871109768051,15.60860218636636,12.14749337900839,-9999,1676782836.151664,31.80587768554688,17.63997650146484,24.44921875,299.5653686523438,288.0822143554688,17.80413627624512,1739089.199947625,0.3907623291015625,1.377090454101562,-0.011566162109375,1739089.194968625,0.5784718990325928,0.2098539024591446,-1.245661616325378,1739089.174633625,-95.24420166015625,86.76242065429688,-269.5367736816406,1739089.186256625,-1.465699570027121,1.775934869829062,-0.7985090436957163,1.423741698265076,0.6969063282012939,-0.8453084230422974,-0.2913603782653809,0.05405384302139282,-0.5313751697540283,2,0.2958643438648037,0.6953658694372515,-0.6130781235611258,0.2303600838903351,0.6831449866294861,0.7163165211677551,0.142138808965683,31.80587768554688,17.63997650146484,24.44921875,-1,2,1739088.26893075,4,1,1676782835.231797,0,0,0,0,0,0,0,0,0,1739086.128471,0,0.0369873,99.08259,1676782831.147426,0,182416158,0,0,1,1676782831.118168,1,0.82,1
1676782836.22914,105,1676782835.14112,34.04869501551567,-117.8139010671359,216.5331,0.3558871,0.6192946,75.02796161617498,32.85871109768051,15.60860218636636,12.14749337900839,-9999,1676782836.211703,31.68901824951172,18.172119140625,24.45535278320312,300.1269226074219,288.6437683105469,17.80405235290527,1739089.259691625,0.2104949951171875,0.9539642333984375,-0.2473602294921875,1739089.254713625,0.9811857938766479,0.4192345440387726,-0.1230132728815079,1739089.234676625,-95.6104736328125,87.23323059082031,-269.8314819335938,1739089.246000625,-1.453709147531137,1.783923456609355,-0.8146852623833665,0.7314700484275818,0.5983095169067383,0.1574238687753677,0.1496012210845947,0.9974201321601868,-0.2452038526535034,2,0.2889989109849237,0.6993142133713119,-0.6135183267872989,0.2259082529962005,0.6705739498138428,0.7275096774101257,0.1451214849948883,31.68901824951172,18.172119140625,24.45535278320312,-1,2,1739088.26893075,4,1,1676782835.231797,0,0,0,0,0,0,0,0,0,1739086.128471,0,0.0369873,99.08259,1676782831.147426,0,182416158,0,0,1,1676782831.118168,1,0.82,1
1676782836.285651,106,1676782836.091102,34.04869871525936,-117.8138992247544,216.5136,0.006335867,0.7894047,-1,-1,14.99646634621653,11.7167032880379,-9999,1676782836.271253,31.65489196777344,21.07344818115234,23.177001953125,303.4000244140625,291.9168701171875,17.80435180664062,1739089.319436625,-0.1441192626953125,0.7980804443359375,-0.35009765625,1739089.314457625,-0.1501916348934174,-1.525904774665833,-1.302300930023193,1739089.294719625,-95.53782653808594,90.2969970703125,-271.199462890625,1739089.305745625,-1.511299046130103,1.71928841595361,-0.8660924759511622,0.1116584315896034,-1.363849639892578,-1.301654577255249,-0.7620934844017029,-0.1920861005783081,-0.3840491771697998,2,0.2722301850997726,0.6883395676755902,-0.6376760001311734,0.2131868870813318,0.6406792402267456,0.7618034482002258,0.09584126621484756,31.65489196777344,21.07344818115234,23.177001953125,-1,2,1739088.26893075,4,1,1676782835.231797,0,0,0,0,0,0,0,0,0,1739086.128471,0,0.0369873,99.08259,1676782831.147426,0,182416158,0,0,1,1676782831.118168,1,0.82,1
1676782836.348618,107,1676782836.091102,34.04869871525936,-117.8138992247544,216.5136,0.006335867,0.7894047,-1,-1,14.99646634621653,11.7167032880379,-9999,1676782836.331117,31.65412139892578,22.50812530517578,21.5728759765625,302.9302978515625,291.4471435546875,17.80451393127441,1739089.379181625,0.4068145751953125,1.206954956054688,-0.2815093994140625,1739089.374202625,-0.1239251419901848,-0.5286625027656555,-0.7174856662750244,1739089.354751625,-95.5413818359375,91.71621704101562,-272.5758361816406,1739089.365490625,-1.470595878291086,1.694327691152657,-0.9185156871458524,-0.2189779579639435,-0.3690879046916962,-0.6610156893730164,-0.227832555770874,0.7600622177124023,-0.3807927370071411,2,0.2329470900613583,0.6950770897675773,-0.6444964415014078,0.2173195306491544,0.602374792098999,0.7947015166282654,0.0747930184006691,31.65412139892578,22.50812530517578,21.5728759765625,-1,2,1739088.26893075,4,1,1676782835.231797,0,0,0,0,0,0,0,0,0,1739086.128471,0,0.0369873,99.08259,1676782831.147426,0,182416158,0,0,1,1676782831.118168,1,0.82,1
1676782836.405241,108,1676782836.091102,34.04869871525936,-117.8138992247544,216.5136,0.006335867,0.7894047,-1,-1,14.99646634621653,11.7167032880379,-9999,1676782836.390744,31.98261260986328,24.20979309082031,18.8670654296875,303.0531616210938,291.5700073242188,17.80476951599121,1739089.438926625,0.704986572265625,0.606475830078125,-0.086517333984375,1739089.433947625,0.782440721988678,-1.698261022567749,-0.886742115020752,1739089.414789625,-95.059326171875,93.46205139160156,-275.2201232910156,1739089.425234625,-1.481510448886597,1.624195963555341,-0.9699181710601248,0.6935299634933472,-1.553353548049927,-0.8996137380599976,-0.01085025072097778,-0.1890057325363159,-0.11509108543396,2,0.196609867604761,0.6902409616001692,-0.6604077785876488,0.2208473781699196,0.5645611882209778,0.8248394727706909,0.03017605096101761,31.98261260986328,24.20979309082031,18.8670654296875,-1,2,1739088.26893075,4,1,1676782835.231797,0,0,0,0,0,0,0,0,0,1739086.128471,0,0.0369873,99.08259,1676782831.147426,0,182416158,0,0,1,1676782831.118168,1,0.82,1
1676782836.468362,109,1676782836.091102,34.04869871525936,-117.8138992247544,216.5136,0.006335867,0.7894047,-1,-1,14.99646634621653,11.7167032880379,-9999,1676782836.450589,32.83796691894531,26.41501617431641,14.94357299804688,301.8728332519531,290.3896789550781,17.8050594329834,1739089.498670625,0.8957366943359375,0.63836669921875,-0.0367431640625,1739089.493692625,-0.09793135523796082,-1.649118542671204,-0.7527565956115723,1739089.474827625,-94.28402709960938,96.1917724609375,-279.1145629882812,1739089.484979625,-1.537826117945623,1.472953111738939,-1.021819605875992,-0.02295506186783314,-1.641100764274597,-0.776141881942749,0.453184962272644,-0.233659029006958,-0.03122448176145554,2,0.1470773175499468,0.6729643194498709,-0.6853959850711416,0.2360498407114762,0.5193186402320862,0.853058934211731,-0.05097457394003868,32.83796691894531,26.41501617431641,14.94357299804688,-1,2,1739088.26893075,4,1,1676782835.231797,0,0,0,0,0,0,0,0,0,1739086.128471,0,0.0369873,99.08259,1676782831.147426,0,182416158,0,0,1,1676782831.118168,1,0.82,1
1676782836.524611,110,1676782836.091102,34.04869871525936,-117.8138992247544,216.5136,0.006335867,0.7894047,-1,-1,14.99646634621653,11.7167032880379,-9999,1676782836.510335,33.01486968994141,27.83832550048828,12.370361328125,300.4072570800781,288.9241027832031,17.80528450012207,1739089.558415625,0.570281982421875,0.73187255859375,0.165313720703125,1739089.553436625,0.6062880754470825,-0.09929702430963516,-0.7394139170646667,1739089.534870625,-94.18962097167969,96.76033020019531,-281.7387084960938,1739089.544724625,-1.559417133232328,1.37308712748305,-1.060486416090891,0.4706218242645264,-0.5312219858169556,-0.6624309420585632,0.1339676678180695,-0.1618083715438843,0.2606613636016846,2,0.1062962321475749,0.6638748275361434,-0.6970811300821329,0.2490965793017778,0.4789320826530457,0.8725931644439697,-0.09594264626502991,33.01486968994141,27.83832550048828,12.370361328125,-1,2,1739088.26893075,4,1,1676782835.231797,0,0,0,0,0,0,0,0,0,1739086.128471,0,0.0369873,99.08259,1676782831.147426,0,182416158,0,0,1,1676782831.118168,1,0.82,1
