accelerometerAccelerationX(G),accelerometerAccelerationY(G),accelerometerAccelerationZ(G),gyroRotationX(rad/s),gyroRotationY(rad/s),gyroRotationZ(rad/s),motionYaw(rad),motionRoll(rad),motionPitch(rad),motionRotationRateX(rad/s),motionRotationRateY(rad/s),motionRotationRateZ(rad/s),motionUserAccelerationX(G),motionUserAccelerationY(G),motionUserAccelerationZ(G)
0.389503114,1.136657704,0.640445116,-0.71943667,2.434326756,0.768104333,2.678788716,2.080049458,-0.88038099,-0.694674053,2.200948423,0.603390278,0.528968059,0.569393437,0.907502251
0.314872148,1.465619723,0.374506824,-3.230510892,0.451613041,0.249762351,-2.630181443,-0.482588877,-1.332814237,-3.541124335,0.526603163,0.46109866,0.482014415,0.427599349,0.527956378
0.016500746,1.197347399,0.086285023,2.8268109,-3.866084926,-0.110667606,2.820552636,2.134002668,-1.403158815,2.024826406,-3.594426388,-0.373365706,0.350986306,0.195936964,-0.038012797
0.010601833,1.393543918,0.35456319,-3.830281365,3.847615564,1.127541215,-2.325329135,-2.753391676,-1.398587065,-3.777387199,3.783550488,0.881625472,0.143603145,0.775039639,0.115550606
-0.002986575,1.693419857,0.507038278,-2.972109763,1.364575906,0.776290751,-0.553857285,-0.557198004,-1.429678582,-3.030021821,1.491238783,0.867192438,0.075663624,0.594840212,0.794344877
0.086085106,0.236604868,0.489858443,2.227428491,-2.117281687,-0.359613563,-0.723618416,2.952907915,-1.552762776,2.205051713,-1.691147587,-0.501407108,0.404803787,0.007855123,0.579084831
-0.109097191,0.700783557,0.16648419,1.761183785,-0.983776396,-0.801833581,0.459611484,-1.775215843,-1.422843156,1.839295826,-1.473287367,-0.802206133,0.021280827,-0.341687655,0.116085923
-0.075392965,1.006491533,0.11591634,-0.005321344,-0.014025649,0.018233112,1.041596738,-2.346184627,-1.534268785,0.013461883,-0.014279914,0.010480111,-0.011183816,-0.000538989,-0.017524004
0.100995048,0.9894417,0.142757157,-0.013934244,-0.026945451,-0.013701221,2.842749583,1.898616268,-1.428389434,-0.001109076,-0.023393068,-0.012379605,-0.007626987,-0.025665475,-0.006106179
-0.517952091,0.098784214,-0.150699243,1.056805198,1.066651177,-0.723530444,3.111775955,-2.856906588,-1.13118645,1.183012719,0.915475123,-0.756059485,-0.314835153,-0.434630308,-0.518381475
-0.163425351,1.878773739,1.051484837,-1.70331368,1.282597416,0.108479934,2.982808938,-0.765786582,-1.216010651,-1.93898773,1.641853047,0.150150786,-0.101627127,1.319435334,0.927291812
0.153088752,1.537398566,-0.211849224,0.905265747,-4.482225795,1.425671009,3.038855256,-2.744960457,-1.25994052,0.659736615,-5.177528678,1.453051624,-0.231637102,1.381495187,-0.17079264
0.012607433,1.071812872,0.130456092,2.202972969,-2.051076196,0.280467169,-2.188547342,2.956024826,-1.481627602,2.157412988,-1.972515103,0.231552134,0.023089748,0.122442219,-0.206942677
0.153926786,1.125574006,0.36693321,-3.113842072,1.136152208,0.763051337,-0.403556286,-0.738455839,-1.330396669,-2.860704715,1.819885372,0.769574629,0.392845565,-0.124642206,0.950989166
-0.027209777,0.060853626,-0.284191113,-2.326047061,0.56413382,2.747825918,0.962718918,-2.768553844,-0.98341695,-2.609265278,0.512285787,2.766030675,0.242042794,-0.722936382,-0.811444442
-0.078712248,0.999453295,0.109266562,0.00769083,-0.00897642,0.001506478,-2.795549308,-1.664959637,-1.482204167,0.012076421,-0.003805637,0.003595019,0.000773334,-0.00770595,0.006274931
0.159618423,1.362421693,0.34734069,0.672730832,-0.843995863,-0.671150705,-2.269261299,-0.272713076,-1.273110501,0.676381504,-0.71011587,-0.54721836,0.245573139,0.225704701,0.612276069
-0.739696573,1.129936331,0.486663439,1.053365787,-0.058001206,-1.180732637,-0.778462028,-0.796473989,-1.328960153,0.977880534,0.016625666,-1.171293035,-0.281770784,0.28358,0.531426866
0.059750427,1.02658741,-0.205895334,1.9664397,-0.671620641,2.189298512,2.495911846,-2.833828157,0.815002481,1.758198119,-1.173893274,2.232257205,-0.018326598,-0.161945112,-0.330504909
-0.260784799,1.525257138,-0.298779498,2.055916495,-0.992004278,-0.976619305,2.916809533,1.041028737,-1.461014839,2.09875736,-1.24712431,-1.027416571,0.033680214,0.446959346,-0.578163661
-0.004850287,1.299405071,0.203579658,-3.457146948,3.821633684,1.383369845,-0.036361188,-2.914695886,-1.32555439,-3.527446899,1.218061932,0.696986184,-0.095920424,0.73588492,-0.325862057
0.142144296,0.863880198,-0.068392573,1.251970464,-0.803969353,-0.53578669,0.840510569,-2.761954443,-1.314616574,1.288564818,-0.890949742,-0.663948066,0.286012281,-0.089957192,-0.307822135
0.47180755,1.337689799,0.546874377,-1.562744113,0.213591553,0.312825978,-2.523345681,-2.705447827,-1.182652886,-1.572339543,-0.046954974,0.283075588,0.270314351,0.511132924,0.409484633
0.587714977,1.794841725,0.147748058,3.081002862,-1.478255704,-0.500993284,1.922054639,-0.11821846,-1.285188519,3.287220303,-1.082526238,-0.489162566,0.227791129,0.149838858,0.140356923
0.073390781,1.122526891,-0.223888431,2.845377338,-1.158934718,-0.045798523,-1.614923388,3.022728091,-1.416199529,2.81801165,-0.889880227,-0.170518797,0.225729249,0.170416924,0.125216669
-0.025485888,0.7459589,-0.166083802,-2.753395804,-0.084295906,1.159723165,-0.835803832,-1.551812984,-1.163679054,-3.399564764,-0.992781984,1.013294328,0.18854749,-0.48661517,-0.189413556
0.413794671,1.269489284,-0.084413954,0.872894925,-0.91629704,-0.699826469,-0.603722935,-0.790348302,-1.301003985,1.127818205,-0.989060136,-0.728253158,0.547961468,0.269532286,0.305810343
0.299326171,1.532921685,0.326065668,-0.126807448,-1.601592285,-0.028430615,-0.734875919,-0.547355986,-1.231400009,-0.134059626,-1.506548136,0.058214494,0.105718347,0.500734722,0.492824875
-0.236336079,0.979179788,0.403743659,1.008593724,-0.748833483,-1.208670938,2.915165818,-0.844609349,-1.378284597,1.061271569,-0.788119819,-1.210998532,-0.067307771,-0.033555937,0.567680859
-0.081712373,0.901165722,-0.142410102,2.712414814,-1.307335057,-0.538676312,-2.795347744,2.770253372,-1.565430445,2.574374919,-1.196548358,-0.981117068,-0.045622755,-0.061964905,-0.135315654
0.256461396,0.94188699,-0.64779404,1.272649966,-1.732179269,-0.464185279,-0.33655513,-2.662663727,-1.442480287,1.389389759,-1.556496825,-0.441412474,-0.099784837,-0.193274475,-0.531973639
0.266628533,1.23828717,0.022306402,-2.163807022,2.279117715,2.566132869,-2.644168047,-1.695860846,-1.460797393,-2.044897989,2.942146755,2.660365986,0.660400882,0.30575766,1.035927783
-0.501328712,1.92482328,0.292078719,0.374396663,-1.162582882,0.506294967,0.899473598,-2.60194678,-1.084353253,0.319933605,-1.351883759,0.657404645,-0.340153002,1.046202844,0.296795772
0.255047217,1.081917902,0.000612416,1.37757158,-0.277967613,-0.726217961,2.839705507,-0.191211956,-1.32231107,1.255008824,-0.285509313,-0.483223305,0.330544136,0.013848122,0.273136796
-0.301035004,1.390835383,0.793314224,1.058884139,0.820310673,0.492404998,2.556021173,-2.761833448,-1.114073511,1.970642941,0.398006798,0.463002558,-0.158756587,0.342261277,0.054950959
-0.053894688,0.934728022,0.054982038,-4.240177764,2.045630409,0.886124328,0.957789483,-1.754035679,-1.171354463,-4.29308322,0.761805851,0.700193468,-0.047171588,0.805281628,0.048156531
-0.12975005,1.033695374,0.080591985,2.060175636,-1.26721757,0.145651919,1.510903292,-2.802265272,-1.432340736,2.069001948,-1.305491788,0.207087976,0.118767048,-0.034738845,-0.241379338
0.792221685,0.92642109,-0.032691317,1.519106474,-1.385537452,-0.290337363,2.197794865,2.461692384,-1.293636983,1.361572992,-0.496458287,-0.255090382,0.910695966,0.043112936,0.345196946
-0.399143864,1.076241866,-0.187828874,2.243745077,0.567130534,1.086004584,1.660297133,2.416094851,-1.328377262,2.079421387,0.615135423,1.103141849,-0.574324276,-0.251206996,-0.287883747
-0.092760898,0.617295312,-0.183676395,-3.780833032,1.837751164,0.667504597,-2.855861094,3.13588138,-1.154567253,-3.26834969,2.140256939,0.208720981,-0.126549157,-0.045434691,-0.563560982
0.032945699,0.879993222,-0.181215113,-2.927081671,-0.180813943,1.225519764,2.318745997,-2.783425854,-1.408193706,-2.936303751,-0.278613909,1.107360521,0.12754353,0.259797182,-0.553318162
0.277905601,0.981933671,-0.018313474,0.87454183,-0.008170592,-0.409819221,-1.632353438,-1.234559492,-1.463888747,0.826159985,0.136338733,-0.334327217,0.506140158,-0.074536659,0.254344061
-0.114708519,0.231868843,-0.30619559,-0.96478573,1.400815335,1.430426292,0.415170543,-2.952946313,-1.077431652,-1.038737735,1.495805101,1.496292383,-0.065103992,-0.569354568,-0.712143181
-0.113751533,0.884089719,-0.213739529,2.804027371,-0.680568593,0.671478691,2.93014774,2.372163299,-1.285880453,3.046283991,-0.191961523,0.740188994,-0.553137474,-0.175489198,-0.293223067
-0.017166088,0.671673937,-0.288377706,-2.755254372,2.083106128,0.906097846,1.070337693,-2.557439821,-1.196561121,-2.617395422,1.882655049,0.964298708,0.276119729,-0.10990232,-0.652308285
0.079931497,0.719674057,-0.225355547,0.855330876,-8.0702359,0.475918965,2.94713816,3.013187866,-1.522552209,0.995264511,0.586811659,0.761785773,0.057804114,-0.427044301,-0.556622204
0.174146712,0.908287301,0.205401251,2.288140633,-1.988108243,1.16700192,2.640955888,0.271568023,-1.478391718,2.238037848,-1.723155973,1.302265645,0.271215863,-0.069988234,0.210816153
0.664470575,1.484994083,-0.614541979,-2.83116823,4.185305913,0.469159091,-1.023728613,-1.396115878,-1.363191561,-3.202403692,4.278863997,0.376122504,0.61377209,0.781978907,0.304296497
0.348726099,1.130083618,0.624713972,-3.801789267,0.546970868,0.382509989,-0.050117683,-0.874643274,-1.436728351,-3.990310936,0.392714065,0.299301087,0.411863635,0.464103745,0.550208576
-0.212944587,1.002498835,0.022902228,1.924965152,-0.528420184,-1.11263969,-0.931334669,1.901126903,-1.47961426,1.727340571,-0.560727885,-1.090249655,-0.384933722,0.005787596,0.297089238
0.354978517,2.363652087,-0.11911337,-1.891828339,2.490249884,3.433392385,-2.840818446,2.693362923,-1.493867924,-2.040142669,3.081374636,3.548727885,-0.026929174,0.852503428,-0.062202755
-0.133720495,0.133785924,-0.113710487,-1.116751946,0.749837623,-0.312427105,2.792067869,2.242140934,-1.092211034,-1.19651055,1.005643787,-0.258376212,-0.506235701,-0.675144966,-0.433519054
-0.496132159,1.174969105,-0.242181726,3.088827373,-1.458716036,-0.776360136,2.765808709,2.138354243,-1.306865702,3.108915805,-1.273634607,-0.794149922,-0.757629294,0.620415071,-0.329025751
0.290684082,0.408503108,0.354302202,-2.895344122,2.634319247,0.896706177,2.592346784,1.860057978,-1.090615058,-2.696903161,2.815408936,0.781166176,0.610453145,0.23965862,0.493016672
0.413157717,1.408160415,0.048317595,-1.606826994,0.039678897,0.858872148,1.751111772,-0.663918357,-1.328637003,-2.305567732,0.171576843,0.84664678,0.704325272,0.485432839,0.351753667
0.248259628,1.412215163,-0.039176209,-1.154021701,2.429651834,1.492220145,-1.369503955,-1.505605475,-1.364640112,-1.148277527,2.639275424,1.667535608,0.520987726,0.257691129,0.13611801
0.130050978,0.77361595,0.236421167,1.532042237,-1.492373142,-0.067541729,-1.681140536,-0.383311132,-1.433989795,1.640462392,-1.775022363,0.210606891,0.432219087,-0.167312666,0.41435398
0.08518852,1.174541106,0.086868362,2.097298624,-0.297357828,-0.207323886,-2.089034933,-0.314251422,-1.366235733,3.000489269,-0.286152212,0.356149471,-0.042331843,0.103682851,0.270379219
0.228876943,1.013841548,0.280285711,0.569558431,-0.911787139,-0.266850523,0.245193452,-0.585908983,-1.293344615,0.786803269,-0.784716578,-0.253140992,0.073616931,0.071524155,0.607163932
0.053522104,0.867637462,-0.224689971,2.150888512,-0.679428579,-0.146036195,2.577680025,1.983967229,-1.417244936,1.830332527,-0.665138973,-0.134229773,-0.28770338,-0.045243515,0.111018262
0.055651254,0.959717985,-0.187347773,-2.284070579,2.800515932,0.646400561,-1.825809494,2.704535332,-1.135263094,-2.564620839,3.390052968,0.402261104,-0.073089785,0.124767465,-0.507583622
-0.610722737,1.998639839,-0.089344223,-2.331749907,3.488618235,0.576014892,1.194261035,-2.514004009,-1.342761229,-2.502923769,3.535552395,0.576744412,-0.546122274,0.834514505,0.133274451
-0.441123207,1.483885002,-0.394374572,-2.728335035,0.211405274,0.577036424,-0.858487463,-0.964994425,-1.439620859,-3.754551704,0.772050524,0.569938564,-0.131258742,0.341026214,0.044027139
0.027533869,1.144123577,-0.211650399,0.985690795,-0.466630795,-0.423568283,-1.728355371,2.935682143,-1.325234759,0.748298658,-0.856044806,-0.445568083,0.133840186,0.123064113,-0.381805224
-0.019693813,0.369543009,-0.161092252,-3.748079555,2.79781894,-1.617243451,-1.990508523,-2.858571623,-1.041940135,-3.921270774,2.544118739,-1.602761221,0.120569825,-0.285319997,-0.687857137
0.314030996,1.532607745,0.216398848,0.210220294,-0.532377174,0.54814245,0.040213193,-0.733486683,-1.234524551,0.530277772,-0.192051256,0.456548398,0.641485016,0.490022074,0.464188937
0.720637584,1.267541509,0.124587968,0.620188418,-0.533836871,-0.178363225,-0.021258802,-0.696167725,-1.292932634,0.73122106,-0.941741056,-0.028734657,0.609724318,0.21002378,0.303016983
0.01126853,0.543824288,-0.475054359,1.084590364,-9.216657699,-0.194545405,0.987402219,-2.828050086,-1.26310663,1.040210077,-8.891526853,-0.288999596,-0.040598546,-0.25493434,-0.78109522
-0.084365637,0.129360878,-0.230751583,0.154645067,1.035335327,0.026321521,-2.132448781,-2.805402071,-1.038279801,0.409940082,0.877567051,0.089047912,0.209135653,-0.685520119,-0.733744712
-0.271847818,0.143366267,0.036081826,-1.132298878,0.929478195,0.799479565,-1.979751327,2.237242713,-1.095359785,-1.105388784,0.920623084,1.003221958,-0.727405604,-0.62324808,-0.321190193
0.076498586,0.708491327,-0.67159868,3.679583348,-2.923029532,-0.074270418,-2.502868438,2.965853144,-1.325299684,3.584304871,-2.876961034,-0.015129212,-0.167783979,-0.218610376,-0.255765649
-0.014845501,1.205057293,-0.287263637,1.868355496,-1.532982591,-0.01537438,-2.783537677,-1.865619562,-1.441958619,1.922631185,-1.515034241,-0.040248799,0.104644412,-0.00193477,-0.798157706
-0.480272462,1.821600439,-0.103536786,1.3995036,-0.85876095,0.484602109,1.585207103,2.062861443,-1.203936184,1.59362965,-0.341099732,0.504973388,-0.872842276,1.24158958,-0.104485618
0.12668856,1.175363788,0.071996495,2.385950571,-0.217486373,0.185110428,-0.788189042,-0.624927601,-1.294334211,2.488021333,0.329202157,0.341207292,0.154219459,0.036959044,0.440675928
-0.229705808,0.215800725,-0.303691716,1.023933839,1.031469938,0.068557323,-2.396462435,2.556511552,-1.107034871,1.006962836,1.086575688,0.171089609,-0.331762231,-0.763891442,-0.5666507
0.181504841,0.875536765,0.215682643,2.068932595,-1.682178708,0.231990494,1.327997608,0.149804309,-1.415314124,2.058754729,-1.906068786,0.224667679,0.260555523,-0.076700628,-0.448624188
0.088172357,0.548912468,-0.01865924,1.02133234,-6.661430453,-1.499012853,2.861360602,2.314907517,-1.43092159,1.107373786,-8.616892038,-1.529594857,0.102168947,-0.436175587,-0.405094456
0.040472161,0.817270702,-0.023924002,0.56909835,2.824792602,-0.448446981,-2.348305326,-2.590068534,-1.222010598,0.034001395,2.663558063,-0.612490803,0.124134393,-0.116869405,-0.362363472
-0.199971906,0.812013875,0.23137461,2.080894336,-1.160710638,-1.76332257,3.089981066,-2.910829025,-1.275377647,1.960950363,-1.178147551,-1.512443366,-0.093581107,-0.052917409,-0.223593997
0.021100829,0.893511383,-0.04566379,1.843969592,-1.243900218,-0.365594978,1.846541674,-2.207158485,-1.479129277,1.849478241,-0.938209834,-0.397469448,0.047914789,-0.191890469,-0.302242277
-0.38215897,0.220451114,-0.035125147,0.31715352,3.235176684,-1.45768965,2.883485185,1.984716049,-1.074410141,0.440067481,3.092798485,-1.58518844,-0.913148403,-0.680396569,-0.371491575
0.009840867,1.09173,-0.056199398,-0.379530121,1.030228317,0.977114235,3.123920571,2.378547207,-1.212222761,-0.235644191,0.748104316,0.952021861,0.128891126,0.677198214,-0.494041116
0.180281302,1.479992726,-0.044235299,-3.393037535,1.312634873,1.268675456,-0.820845951,2.01487059,-1.288427417,-2.823454847,1.35543182,0.819212693,0.155623161,0.534862739,-0.400699101
0.698241651,1.452406962,0.223577633,-0.607704621,-1.236417009,0.853747357,-3.01801336,-0.621745119,-1.242805459,-0.370132713,-1.153649553,0.658866233,0.71896496,0.540822232,0.606105553
-0.051493669,0.1412349,-0.395165502,-1.102273613,-0.142599212,0.118117983,0.35705692,-2.830794776,-1.0251322,-0.916796645,-0.082047653,0.048441172,0.148283738,-0.662297782,-0.907096468
0.253463822,0.919944035,0.125089292,3.253674753,-2.662598381,1.129067897,-0.065115683,-2.56804135,-1.299277848,3.397984549,-3.400523695,0.752987002,0.313035538,0.070811592,-0.108530051
-0.17821012,0.796513969,0.832994797,2.321599269,0.884800898,-2.047226348,2.908859568,-2.869034964,-1.122881074,2.139168243,0.899069151,-2.071237707,0.080494712,-0.715352049,-0.338991438
-0.572385285,1.007342036,0.070383607,-3.418570355,1.278009471,1.05624462,-1.473003055,-2.471163611,-1.201885664,-3.178107814,1.214765117,0.853724096,-0.478230222,0.276635605,0.127552638
0.255549084,1.03253473,0.217672977,-2.412294385,1.206110288,-1.099015664,1.202865706,-2.813336475,-1.186599122,-2.663204161,1.477412666,-1.006934603,0.269333063,-0.02695255,-0.797890243
0.044544361,0.990161978,0.021528326,0.002978324,0.053678969,-0.020145332,-2.841022167,2.700887131,-1.461522353,0.015953106,0.049069379,-0.031558668,-0.052552873,-0.012645282,0.032831807
-0.690666175,0.998747977,0.081472412,2.818631826,0.538780959,-0.678965621,0.975098841,-2.726872752,-0.116225127,2.512702739,1.182513146,-0.574593549,-0.081083527,0.71989064,-0.609479333
0.32354214,0.770700766,-0.014227426,2.748555598,-3.240942706,0.522350086,1.346750518,-2.402214501,-1.486780783,2.657322706,-3.970084119,0.453800467,0.351048757,-0.251611684,-0.110671119
-0.207484951,0.040713904,-0.159108618,2.083144654,-0.058752807,0.57914053,2.867396521,2.278873978,-1.130280925,2.12890694,-0.250824718,0.548655331,-0.615520208,-0.901498029,-0.421727111
0.499973086,1.370892268,0.018967223,0.771354652,-0.940468443,-0.704140385,-1.534904072,-0.368904684,-1.345062737,0.76982245,-1.067005149,-0.563806202,0.342506486,0.4743382216,0.272377048
0.046190915,1.021081545,0.311943616,1.937628937,-1.393487061,-0.195649312,2.796124768,-0.445221266,-1.269553773,2.508655359,-1.094463181,0.235894324,-0.040161761,-0.067492818,0.687341354
0.321399415,1.165312925,-0.174245323,2.756697691,-2.011766946,-0.467020742,0.97771711,-2.165801146,-1.379122616,2.775247817,-1.572280582,-0.380109193,0.208206221,-0.046526418,-0.246848485
0.509848628,1.588442511,3.055352078,-3.288860984,3.77825164,0.421379278,-2.866164733,-2.888356292,-1.181165579,-3.444061965,3.26265334,0.508914224,0.047546607,-0.040611133,0.447141572
0.354108236,1.427918694,0.253436523,-3.302301129,0.477921577,0.438285814,-0.587376662,-0.50737069,-1.237941618,-3.466596853,0.493679675,0.442759578,0.194060418,0.378784681,0.476848043
0.113881671,1.344656616,0.410012986,-2.450761189,-0.41897171,1.407369991,-0.751240574,-0.595139669,-1.343523252,-2.379822274,-0.269342811,1.522199074,0.458452905,0.41548933,0.573455049
0.317278879,1.458315361,0.539348734,-2.588326837,0.300679633,0.239076705,-0.738615508,-0.789947875,-1.312318153,-2.886569755,0.141956144,-0.036764179,0.826195098,0.398180609,0.870594178
0.366412334,0.800760506,0.082062421,1.344352491,-1.056183106,-0.549562025,-1.061275338,-1.298889113,-1.49199011,1.299144224,-1.177209404,-0.488531605,0.46488372,-0.161698705,-0.025941174
-0.501178595,1.158052011,0.128197439,-3.890147701,3.609223919,0.472734983,-0.311596659,-2.834844286,-1.307657389,-3.817769824,2.904106664,0.608001585,0.067726818,0.871180006,-0.129085991
-0.09790775,0.122316115,-0.377148471,0.257495393,0.6824710142,-0.438109609,-0.20030935,-2.845630931,-1.087139361,0.473741442,-0.881151946,-0.640615772,0.072002651,-0.759716943,-0.810940991
0.103010946,1.43143232,0.041952176,-4.677411834,0.897466887,-0.518441257,-1.747462034,-1.023460317,-1.329797947,-4.725980798,0.730084024,0.156580503,0.024403548,0.35378843,0.04655
0.058627471,2.564946452,1.288139442,-0.726655194,1.327263534,0.142392628,-2.133023856,-2.799116397,-1.209553389,-0.731820114,1.58340565,0.112372125,0.00999552,1.461026478,1.384776055
0.234015336,1.096413855,0.563919757,1.662595696,-1.336040967,-0.036994284,-1.565435043,2.665106024,-1.04339694,1.913360856,-1.692100554,0.062000436,0.359765022,0.65927989,0.090462327
0.22134294,1.456945719,0.346279223,0.009483374,-1.122236475,-0.045560321,2.300472573,0.36991718,-1.241410568,-0.215352149,-0.957412155,0.174507639,0.215241455,0.487376472,0.656965855
0.032819547,0.084376208,-0.297848375,-0.375541815,1.124438745,-0.2574703,2.978398147,-2.825541857,-1.03125843,-0.542161333,0.843656333,-0.109006195,0.164735117,-0.65245294,-0.767604144
-0.005090844,1.075466955,0.070546263,1.895555846,0.157950649,-0.711384713,-1.702228452,2.751822341,-1.556938121,1.747956595,0.079826209,-0.762019144,-0.015231361,0.088488141,-0.023825293
0.549181758,1.336990852,-0.029229547,0.080680308,-0.232949865,-0.249491624,-2.179884612,-0.704581358,-1.296313883,-0.066650664,-0.370328211,-0.238796523,0.668065518,0.324288076,0.170519666
-0.366411084,0.904130418,-0.246326036,-2.734318159,2.332890275,0.028476342,-1.697517966,-2.795376449,-1.155623133,-2.97522191,2.178755081,-0.051316387,-0.027246262,0.050233981,-0.530788056
1.161295906,2.256562904,1.315048651,1.007120293,0.000863265,-1.416041752,-2.675466452,2.779975858,-0.03524211,0.006896464,-0.008033559,-0.01001467,0.223460481,0.08457185,1.566335059
0.226257625,1.14860984,0.132025523,0.364343403,-0.432789483,-0.400725602,-2.075692846,-2.911602736,-1.28755095,0.460288663,-0.513726578,-0.414599823,0.265331682,0.13697188,-0.175175925
-0.166861198,1.065257703,0.155476061,1.946429779,-0.914092748,-0.09800838,1.534411523,-0.49310653,-1.452111634,2.028690947,-1.159671183,-0.066965251,0.019830371,0.102207312,0.212664053
0.166920835,0.8379603,0.041908729,1.832857151,-1.957303818,-0.607615573,-2.659535897,2.694936175,-1.454720954,1.969230225,-1.922188396,-0.552104031,0.138165066,-0.148747275,0.059453577
0.792758008,1.14457852,0.543023728,-0.923791621,2.763608535,1.021443128,-1.778875786,2.864344411,-1.128706418,-1.000342282,3.014152862,0.885179899,-0.239570319,0.724980174,-0.580455393
0.107800365,0.957585231,-0.53167593,0.79172576,-4.22626255,-0.592507799,-2.790615303,2.895888158,-1.387376952,0.79051041,-4.169810742,-0.586874146,-0.163938439,-0.205564025,-0.213206118
-0.440198709,1.457396655,-0.306954247,-1.225888484,2.515577963,0.832840431,2.930019714,-2.754474352,-1.283063964,-1.395741656,2.729747405,1.03177989,-0.187817859,0.134779257,-0.776857117
-0.393282063,0.584289841,-0.192507215,-2.004153238,-0.327139172,0.122999559,1.66599912,2.020477352,-1.226226227,-2.442125988,-0.215762819,0.099047331,-0.824314204,0.248848319,-0.082732481
-0.247788762,0.934989856,0.247912627,1.775339366,2.791800001,-1.578546048,-2.310399252,-2.644506001,-1.304042542,1.839272203,2.750365509,-1.694237955,0.055244009,-0.089316338,-0.184655686
-0.515992003,1.828929437,0.127588986,1.299107293,-2.446625391,-0.730928596,2.704859414,2.251158166,-1.531354199,1.130746173,-1.926901893,-0.773548098,-0.469039206,1.124972432,-0.102317427
-0.174512587,0.578809717,0.131267237,1.792328324,-1.022589691,-0.474936698,2.519355534,1.928087569,-1.488290384,1.829535662,-0.843636772,-0.499163686,-0.497337029,-0.329559042,0.003249713
-0.249826305,0.728073786,0.030956698,-4.13768463,2.377388965,-0.684893604,-0.794154465,2.099893201,-1.275178243,-4.112763667,2.615846393,-0.681376685,-0.929104514,0.176123798,-0.066556871
-0.240213331,0.170697724,-0.294613008,-1.177415236,1.17261201,-0.16540862,-2.740134597,2.546801251,-1.031424216,-0.956002548,1.028009882,-0.150706381,-0.358507094,-0.591616506,-0.744470907
0.26404026,0.764290678,-0.120939164,2.627043506,-1.749710557,-0.486398552,-1.506765639,2.821726916,-1.477187787,2.876601752,-1.292826931,-0.270730316,-0.041106542,-0.060974552,-0.174490713
0.408516489,2.145606241,1.285282156,1.502353921,0.314589301,1.034475657,3.098442578,2.617803672,-1.165072535,1.713388536,0.291894066,0.8795625,-0.488167751,0.482785392,-0.789379035
-0.081978819,1.426965229,0.252200258,-2.387664418,0.30546591,0.786283494,-2.99490993,-0.621674461,-1.30438467,-2.369304153,0.344195114,0.84634134,0.390655045,0.526774764,0.376728887
0.047359984,1.022880274,0.068488835,0.222842863,0.211904766,-0.050322658,1.416790294,-0.46190626,-1.449637609,0.222343637,0.219493313,-0.052602623,0.107640477,0.005108474,0.088665738
-0.153435391,0.78246021,-0.282604551,1.766781769,-2.269714784,0.306467413,1.992506488,2.44210102,-1.438028952,1.620239064,-1.99355883,0.384820286,0.616753248,-0.236335291,0.106472626
0.405917519,1.179626774,-0.064721269,3.292611801,5.616399159,-2.439336467,3.00343251,2.063401238,-1.453563176,3.271554818,6.581087434,-2.318367978,-0.456384328,0.306139762,0.009258904
-0.015897653,1.436468059,0.320847573,5.583521208,-0.61336857,0.52357826,-0.568676965,-0.660614723,-1.326082942,4.464510576,-1.885345685,0.716913986,0.094961937,0.602656189,0.580065073
0.120919009,0.984877745,0.036652735,0.019804044,-0.001171825,0.028618505,2.822340159,1.943414486,-1.549727585,0.024830903,0.009324932,0.056636628,0.005848523,-0.001372927,-0.007355348
0.500335132,1.322832294,0.079423729,2.600236698,-2.56990756,-1.246294584,0.240281447,-0.502997643,-1.401562773,2.742459974,-2.638520301,-1.262885569,0.39893362,0.258779998,0.305089297
0.197556466,1.625162398,-0.155710973,-2.917941499,-0.122182851,0.615643907,-2.693505265,2.973661048,-1.42286038,-3.16329243,1.243157072,0.572905872,0.136440842,0.440675345,-0.260179992
-0.289262559,2.196158548,1.928037597,0.130130753,0.463540683,-0.029475034,0.784359088,-2.819253684,-1.129905083,0.038936675,1.100415322,0.003199896,-0.272431454,1.028564351,1.506861231
0.038986035,1.194622581,-0.16956151,3.222363817,-2.572941574,0.154358533,-1.127406191,-2.988641599,-1.507968303,3.652227124,-2.266584554,-0.084359993,0.141215393,0.147317985,-0.34858268
-0.172936608,0.193832976,-0.116401905,-2.128835878,0.504446629,3.445323974,2.80374208,2.223427427,-1.097516036,-2.219101824,0.61595929,3.590461992,-0.520956258,-0.661097081,-0.396592091
0.153800796,1.245063275,-0.223765154,-2.926763441,0.715776682,-0.411815367,0.101249532,-1.612762495,-1.217812176,-2.760136108,0.549891067,-0.146173221,0.064349069,0.933693455,-0.75433271
-0.028451297,0.080960986,-0.345328275,-0.260144253,0.853117613,-0.051857438,-1.259165117,-2.90172142,-1.022861201,-0.204961192,0.662519342,-0.130604104,0.044064316,-0.887137167,-0.8504429
-0.021981584,1.217746972,-0.151315619,0.283531275,-6.074446737,-1.278138132,-1.099846695,2.901553285,-1.477786489,0.390105045,-5.564096788,-1.285676241,-0.234111404,-0.323088601,-0.3522981
-0.227488563,1.301309714,-0.160961813,1.817253662,-2.470455616,-1.545609159,-2.936886378,-2.806986066,-1.441360117,1.753793954,-2.521979848,-1.612524055,-0.262951377,0.086467947,-0.365058753
0.735809002,1.398192378,-0.023895905,0.219646236,-0.538014958,-1.379049271,1.315891343,-0.791662494,-1.34299764,0.176876849,-0.445612396,-1.391589123,0.419381891,0.375200957,0.383082519
0.659300222,0.805597863,0.036509838,1.569114612,-1.274015315,-0.954096284,2.337603581,1.383024127,-1.518315696,1.756180275,-1.05512915,-0.892807055,0.139256755,-0.135335012,-0.077371779
-0.157907169,0.939927933,-0.213425749,0.096844688,-0.803851933,-0.597810711,-2.081998532,-0.539308307,-1.384634163,0.125831519,-0.438826321,-0.666180131,0.1556053,0.005681922,0.187291359
-1.738460912,1.890275089,-0.662285331,1.219818801,-0.775110206,-0.666121836,-2.333831139,-2.296946735,0.013540635,1.273799421,-0.828538311,-0.287198222,-0.74017375,1.8528594,-1.221033023
-0.27382872,-0.249868942,-0.289970411,-0.346714813,1.304399343,0.050601854,-2.939978521,2.85286083,-1.302333586,-0.32150611,1.188858969,0.924252752,-0.293938843,-1.143160657,-0.613206521
-0.269766923,0.624905862,0.265151861,-2.270418898,1.405272634,0.497213699,0.666265609,-2.567841594,-1.166633448,-2.368649105,1.630933091,0.547246731,-0.431685341,-0.004874352,-0.36712959
0.110690004,0.041104049,-0.292405294,1.356948693,0.491917643,-1.152381245,0.900722558,-2.927223184,-1.090324552,1.390399332,0.574144091,-1.109528333,0.177241409,-0.782119215,-0.702216105
-0.076810959,0.091672946,-0.419285666,3.00329721,0.9189828,-0.100301066,2.997481362,-2.843276099,-0.990941025,2.71376265,0.949692479,0.204389573,0.127814051,-0.763646662,-0.987884615
-0.057262316,0.255502545,-0.2408829,-3.5746929,1.117662281,0.126111461,0.824561217,-2.893128345,-1.12695571,-4.210696013,1.362670028,-0.09475022,0.029176123,-0.459516436,-0.782832479
0.328143388,1.18386615,0.137021096,2.017858224,-1.06579398,-0.495560653,0.105419926,-0.698776579,-1.307788819,2.173995786,-1.469671117,-0.402525015,0.623677842,0.22029032,0.427204795
0.107270688,0.557939513,-0.090054505,2.162697317,-1.023172539,0.340517059,1.24059532,-2.568696573,-1.174575562,1.569862316,-0.882997152,-0.03526535,0.014995618,0.01114276,0.079616215
-0.043909892,1.598288721,-0.436813782,-3.941159115,0.224389469,0.387492351,-3.061148036,-2.814213566,-1.465480576,-3.684069034,0.36403065,0.71100933,0.196455875,0.443053997,-0.9936661
0.451500263,1.237440613,0.171770779,0.683877445,-0.273541439,-0.78640604,0.069298001,-0.614380499,-1.335511885,0.668380717,-0.299259235,-0.747456878,0.31428555,0.060365521,1.060679448
-0.105650763,0.964277485,1.193058506,-3.469336677,3.200697368,1.360163998,2.424858753,2.015234291,-1.124586512,-3.346767662,1.811552989,1.521301081,-0.306261295,0.967458091,0.981559245
0.132491248,1.275545863,0.05730674,-1.989219302,1.778409037,2.153380269,-2.880162859,2.817977158,-1.203413113,-2.003986826,1.853778543,2.097696877,-0.269477727,0.836272856,-0.483829515
-0.232205313,0.963487836,0.115988708,-3.991106412,1.822860576,0.646927425,-0.581623731,2.788377647,-1.278328554,-4.087112994,2.235959824,0.62824689,-0.51245278,0.301354136,-0.048604656
-0.014715589,1.103667503,0.062042827,0.984685888,-1.503905507,-0.545048312,2.922332989,2.356220343,-1.394044869,0.977585286,-1.5375284,-0.521142273,-0.091747923,0.258527485,-0.070513105
0.283538523,0.879244731,-0.070732028,1.551296549,-1.114720302,-0.033983039,2.964232217,2.163357617,-1.540624319,2.177788019,-1.195569016,0.036701263,0.249161555,0.095950987,-0.205731094
-0.461435748,0.713626507,0.060269032,1.687569186,-0.326894796,-0.701399736,0.704372362,-0.939914755,-1.34157369,1.731224087,-0.545132528,-0.701668415,-0.086052769,-0.186839123,0.20484814
0.226706054,0.718709634,0.026710939,3.042770657,-1.686815993,-0.703006361,-0.883111714,-1.661247316,-1.464325095,2.948441986,-1.181410725,-0.799018741,0.27241032,-0.238377963,-0.142503298
-0.049124203,0.975235329,0.150576244,-0.024142254,-0.013571662,-0.005294281,-1.91018522,1.114475904,-1.413057395,-0.000830825,-0.017327327,-0.011570212,0.008460871,0.002827556,0.020565258
-0.02277325,0.756551086,0.103028032,2.193752982,-1.731611193,-0.662214065,-1.917803744,-2.725095639,-1.446128815,2.071486535,-1.749562729,-0.680593903,-0.013490576,-0.150086133,-0.059155698
0.43825146,1.444183828,0.220365507,-0.268253584,0.4321241,1.016081131,-0.418461936,-0.426092549,-1.315096127,-0.18442818,0.378478518,1.055672788,0.309667268,0.458114425,0.544613736
0.114912742,1.62503176,0.193562233,-3.268318311,1.114681868,0.794361759,2.578977489,1.953632308,-1.393796233,-2.572591209,1.255181738,0.772918479,-0.008926267,0.613248627,0.031475877
0.214931803,0.828285379,-0.118925467,1.84939844,-1.531904749,-0.083436942,-0.985778062,-3.139215211,-1.439316209,2.014413056,-1.473188861,0.158674872,0.348765232,0.13750945,0.198427567
-0.166518599,0.021424337,-0.28141828,-0.003086938,0.814308936,-0.03416348,2.9817985,-2.856547263,-1.024230063,0.268438862,0.684737309,-0.141778694,0.017590015,-0.812933717,-0.842619668
-0.041255334,-0.086879086,-0.308798299,-0.839141992,1.293791203,0.141827806,3.13255401,-2.774352129,-1.036072399,-0.889960397,1.253626821,0.380965629,0.09251274,-0.91581039,-0.774642667
-0.207718125,0.035320891,-0.247794668,0.272540712,-0.094018698,0.786726931,-2.987331374,2.644333333,-0.997692788,0.714234945,0.209243608,0.807655126,-0.47764938,-0.909551651,-0.853682298
0.236043268,1.379610345,-0.065379255,-0.210029795,-0.602489389,-0.047850961,-2.901016173,-0.264312973,-1.284655264,-0.509622086,-0.605423482,0.00636392,0.28033509,0.431885453,0.427911669
0.014216312,1.041637457,-0.124701881,0.685279356,-0.568817948,-0.889503207,-2.431962187,2.715818822,-1.299582687,0.702229229,-0.423979028,-0.813874591,-0.246643403,0.063420217,0.252412538
-0.212331171,0.92690057,0.230611543,1.422062052,-0.293656625,-2.809082484,-3.064700678,-0.404396559,-1.330383666,1.560301281,-0.372465793,-3.017435054,-0.591089577,-0.050930559,0.292240848
0.020231698,0.731630723,-0.142555269,-2.394248797,1.43258761,1.679912079,-3.122308244,2.593120773,-1.347891802,-2.51459518,1.508145719,1.511321348,-0.243448141,0.06985203,-0.242712007
0.092811847,1.119818151,0.235131289,1.8995885,-0.040354989,-0.197708513,-2.169446341,-0.473674344,-1.286016285,1.77810732,-0.395881757,-0.215042818,0.508049625,0.077191139,0.201060181
0.007107066,1.023142023,-0.067501757,2.473697157,-1.667007287,-0.250902227,2.565311194,-2.71474498,-1.359812822,2.420180167,-1.571903863,-0.43082084,0.126975404,0.358609593,-0.474177406
-0.068654255,0.093700848,0.0233,-3.97534449,-0.6912805,0.410227513,-2.736896987,-1.754811949,0.150844663,-3.814075863,0.427999716,0.493711518,-0.015997273,-0.175527788,-0.478251023
0.530064802,1.636576804,0.120908052,-0.271458984,-0.360105726,0.41841655,0.222653196,-0.581660812,-1.260611675,-0.351030457,-0.533503358,0.383243091,0.46898857,0.588458336,0.239395917
0.200491652,0.928885944,0.13322789,1.406351718,-1.539747029,-0.753837931,-0.622548147,-0.6676989,-1.429492102,1.397160645,-1.486240682,-0.79282972,0.151077768,-0.117116437,0.225096863
0.007336197,0.91288674,0.067798266,1.807799258,-1.786419434,-0.615448583,1.149805406,-1.605292678,-1.430763825,1.841383004,-1.4455729,-0.693199329,0.221035436,-0.091450355,-0.01828772
0.011292752,0.834663831,-0.268556364,-3.024729379,3.108823924,1.948329014,-2.53127388,2.745878505,-1.235480522,-2.970234457,2.82829267,1.802222546,-0.104615798,0.136499891,-0.377484419
0.203922714,0.616077552,-0.38981945,-3.633555863,1.106563709,0.73778712,-3.012256875,2.675417302,-1.196367961,-3.312916853,2.021288646,0.879468978,-0.123736533,0.131894127,-0.589703669
-0.134024304,0.509205008,0.690332766,-3.056524241,0.562022218,1.177289691,-1.804918292,-2.703034214,-1.098809653,-3.034815455,0.71806262,1.065959334,0.113850037,0.158930427,0.507308789
0.100641298,1.056938344,-0.479237612,1.784305772,-2.252507825,-0.797452871,2.5905775,-0.349831958,-1.332965206,2.077105738,-2.320472148,-1.066107116,0.036115356,-0.187561383,0.128905239
1.254668751,2.680097483,0.844802456,1.179657773,1.060879769,1.092243308,-0.966395683,2.976827673,-1.173590486,-0.464044382,1.93017104,1.315275501,1.035275494,0.842109361,1.927749545
-0.443259539,0.8031103,-0.135340064,-0.006912184,0.084599841,0.018176635,2.947258782,2.057136078,-1.553664475,0.007649584,0.030229836,0.015701399,-0.779645304,-0.034418562,-0.28286045
-0.043874659,-0.005820907,-0.55817551,-3.844489215,1.650611033,0.466717337,2.659570618,-2.869120654,-1.038262185,-3.284723544,1.94835869,0.320031785,0.121684258,-0.854901593,-0.990819412
-0.261825214,1.344837159,-0.19697526,-2.217988898,-1.601368966,1.610615971,2.444485076,1.984839008,-1.506474878,-2.402049822,-1.900661313,1.542406814,-0.762688647,0.992011421,0.380352823
-0.110513233,0.422886963,-0.214349762,-1.335376054,2.179476653,0.670009285,-0.111718479,3.010368268,-1.241762916,-1.35064445,2.198950014,0.600892465,-0.073124071,-0.283779482,-0.541776799
-0.899266099,1.710796728,-0.167932662,-1.77629874,0.108351303,1.259221837,-0.981254201,-2.689009964,-1.530844197,-2.308398702,-0.025719873,1.261525277,-0.635724178,1.262995758,0.326243883
-0.373698074,0.894509783,-0.269215981,2.828461041,-1.257329594,-0.251961724,2.745363427,-0.391507899,-1.442972191,2.651689197,-1.256287725,-0.278575179,-0.382132708,-0.078797942,0.200555046
-0.097756732,0.092006713,-0.124473346,-0.771980713,1.494476194,-0.749024696,3.057851944,-2.919318276,-1.093424828,-0.740874246,1.38371295,-0.644101166,-0.0608836,-0.881258426,-0.781558163
0.20139252,1.266836147,0.168121853,-0.493703154,-0.638356587,-0.580607019,-1.931600351,-0.423099181,-1.25052438,-0.496489804,-0.704132569,-0.456421991,0.256991603,0.218872513,0.355619836
-0.052069065,1.640095369,0.464851003,-0.367081632,-2.174518324,1.188544487,-2.743233736,-0.493404438,-1.222217188,-0.363630443,-2.216274576,1.360550906,0.248229249,0.652639205,0.743453434
0.120238148,0.959024094,-0.098814552,2.011976581,-0.934935194,-0.842104388,-1.564801353,-2.564377333,-1.471115284,2.080022245,-0.881996458,-0.8136964,0.151274527,-0.072820991,-0.048539949
0.112191211,1.624650358,-0.319943234,-4.243442326,5.766079597,0.412994887,-0.660072177,-2.669463358,-1.335596871,-4.546140284,2.411156897,-0.063604963,0.062492871,0.797962069,-0.482785019
-0.005220615,0.960368612,-0.329451457,2.453544063,-1.875069819,-0.018394353,-2.998747144,2.568119874,-1.295023808,2.575769693,-1.792581579,-0.090276181,-0.375697434,-0.157302745,-0.723738516
-0.214987409,0.775644144,0.03269879,1.713302604,-1.137839346,0.222429885,0.57054936,-0.733535581,-1.408112034,1.522283778,-1.360780082,0.198880555,-0.141946247,-0.21518079,0.363054704
-0.080770923,1.664082235,0.393045492,0.562888324,-0.594065152,-0.224537962,3.030224281,-0.86664335,-1.236915752,0.491360892,-0.73459953,-0.086851122,0.237322497,0.521062572,0.570914385
-0.051765342,1.480715738,0.496173784,0.413997658,2.487985273,-0.945384006,-1.622883677,2.874157795,-1.221648579,0.54577029,2.357726896,-0.971331017,-0.591184406,-0.55841571,-0.610007266
-0.270240152,0.119282758,0.012775448,-0.064296307,-0.07696043,-2.175613772,0.720417617,-2.882142517,0.750558114,-0.132887529,-1.160143948,-2.14657034,0.050868563,-0.275489461,0.147544974
-0.721086293,1.704011693,0.024533307,-2.757235954,-1.64397739,1.600739413,2.148228433,2.740212835,-1.448196217,-2.703624299,-0.972765922,1.558290208,-0.552641888,0.317650828,-0.709143935
-0.206528621,0.779658854,-0.056353219,2.207843278,-2.231639175,0.615227422,3.035688521,-0.583900576,-1.434790136,2.13515725,-2.185199543,0.632464519,-0.100186322,-0.070046828,0.098186705
0.186788358,0.905766085,-0.047673192,1.502642385,-1.099433045,-0.981763919,0.178399562,-0.555107852,-1.455039369,1.635929308,-1.116181078,-0.950460932,0.220469575,-0.085833745,0.08774608
-0.183369013,1.744185554,0.076652974,-3.850908604,3.916229576,0.618130838,-2.663984842,2.194714821,-1.385191464,-3.555429194,1.386096894,0.566159627,-0.067568407,0.899713009,-0.039415531
-0.137405459,0.736853878,-0.222040743,0.439695788,-8.629729196,-0.953214458,-0.976785148,-2.414398785,-1.450264638,0.577152828,-7.522037549,-0.95352351,0.052221837,-0.525419862,-0.51765963
0.13322817,0.785016942,-0.224678266,-4.053967163,2.201732462,1.163098082,0.640323575,-2.914382196,-1.083825465,-4.163802548,2.064254693,0.882377238,0.214788235,0.058986267,-0.606497272
0.284703057,1.20264503,0.133435308,0.930365881,-1.816923868,-0.29046445,-0.298698137,-1.043939631,-1.435691673,0.805728534,-1.348693977,-0.351739337,0.600916961,0.028858618,0.592717743
-0.102361136,0.455237559,0.507465569,1.102951223,1.318184678,-0.075081659,1.13723309,-2.703670085,-1.197513626,0.989957407,1.211334055,-0.147390341,0.005675097,-0.81095175,-0.488808901
-0.134313142,1.122837827,0.119483741,-3.010244137,1.039114245,0.896239689,2.254862617,-1.112077878,-1.411664932,-2.967900953,0.627772292,1.022135996,-0.061212143,0.19122543,0.075195156
0.06977981,0.805543858,-0.896522726,2.399004735,-2.18596366,0.052416207,2.005950875,-0.012300917,-1.230100775,2.403761124,-2.277736752,-0.062217468,0.228428628,-0.536402526,-0.957315399
0.050579203,1.223468831,0.131635021,1.625471078,-1.42121045,-0.477052196,-3.039758085,-0.778913951,-1.291419995,1.465956655,-0.891633596,-0.365633594,0.161665735,0.243798489,0.298466067
0.140272873,0.625385825,-0.069873889,1.61794753,-1.265338285,-0.49172496,2.930493906,-2.731742636,-1.388125204,1.652175638,-1.254265755,-0.705581442,0.337052476,-0.414761868,-0.266363788
-0.223794313,0.733090785,0.984886318,0.128190352,1.706345791,0.061819151,-2.125914273,-2.773197386,-0.768535998,0.210496038,1.80272892,0.100088775,0.055015713,0.077747698,0.436770977
-0.445894564,1.334490721,0.385271733,-2.93920465,1.31162155,0.499699888,0.816491328,-2.630994219,-1.194829659,-2.538215789,1.439551048,0.538400619,-0.377678462,0.39279256,-0.70472596
0.041068908,0.432289861,0.06119662,-1.12080694,1.713657155,1.577239775,2.569834703,-0.44151435,-1.200189253,-1.073247403,1.719846744,1.538603863,-0.028774473,-0.76440004,-0.266451425
0.218311714,1.249720126,0.04663461,-1.471317454,-0.509942086,2.117079848,1.791512382,2.382069547,-1.442932516,-1.537608075,-0.522117122,2.217697866,0.197222545,0.566580311,-0.157113662
-0.096270132,2.028858545,0.490246361,1.342349236,-0.66793957,-0.244432434,1.746577471,-0.298627605,-1.195035826,1.637004833,0.111286178,-0.256377781,0.400307384,1.150837058,0.596511534
-0.239701478,0.979679311,-0.02521425,1.36035998,-2.768864611,-0.14920812,0.122225662,-0.732823029,-1.469555506,1.355725488,-2.750131985,0.019881787,-0.072809543,0.000367883,0.086732321
0.614030545,0.954306432,0.083257005,-2.528935168,0.787032957,1.747100027,-0.037694995,-0.766216296,-1.234847149,-2.671598253,1.346728115,1.637974877,1.073031756,0.900485527,4.359207837
-0.150565483,1.524172842,0.202751912,-4.453506906,0.262215937,-0.284890011,1.65513454,-0.68696344,-1.318630924,-4.691073319,0.048177132,-0.596924783,0.300147364,0.627445577,0.351372636
-0.073700753,0.852548154,0.075747428,2.003209633,-0.851470328,0.004204643,0.823667482,-2.371999289,-1.485733622,1.901398734,-1.126072595,0.02695631,0.080644256,-0.045290936,-0.163588748
0.344556328,1.092238128,0.134794314,1.589429582,0.166826906,0.262095066,-1.096007288,-1.293795629,-1.450580191,1.67863766,0.19984799,0.121577973,0.390836059,-0.110163192,0.066828086
0.024655238,0.678946329,-0.122932718,3.305921456,-0.097819033,0.470346595,1.408864427,-2.863111973,-1.05114131,3.625683616,-0.07026424,0.373735582,0.166113993,-0.32085553,-0.47863877
0.199539576,0.786513244,0.181970778,2.61264687,-2.117961638,0.304138185,2.542507856,0.221447303,-1.440576264,2.666609544,-2.031609819,0.450733044,0.294590375,-0.236743053,0.255251705
-0.224468785,0.824284074,0.065605574,3.13663609,-1.605161962,0.515658919,2.632857885,0.199135969,-1.389808837,2.821557339,-1.034683971,0.288102694,0.281967522,0.111744799,-0.449789302
0.001860075,0.131694475,-0.209858473,1.878007656,-0.563934724,-1.73043012,-2.871414963,3.101185818,-1.158015314,1.795297978,-0.844042175,-1.85127,-0.071070091,-0.643193853,-0.359024354
0.220559098,0.716736274,-0.226114979,0.668092259,3.038255752,-1.907949561,2.203310858,-2.817895356,-1.221860313,0.699803555,3.41315075,-1.903334213,0.373983739,-0.09565711,-0.714291542
0.049673954,1.931574961,0.058510395,0.488203823,-3.658423219,2.369075741,3.057467088,-2.853095552,-1.232590025,0.606621088,-3.614944753,2.245992863,0.091990099,1.145109698,-0.069107451
0.141726653,1.491580092,0.294429647,0.067202418,-0.064954487,-0.00447102,-1.213441622,-0.467675309,-1.239784978,0.019157086,-0.150417502,-0.004709342,0.155827629,0.316726738,0.522668224
-0.115867018,1.074515548,-0.038673139,1.548594365,-1.170418676,-0.743298599,-2.77307013,-0.476136,-1.292663939,1.521881386,-1.216762872,-0.735771687,-0.213181647,0.17178826,-0.623029566
-0.126139752,0.745816219,-0.225466034,-3.020391488,2.379293588,0.261849532,2.948591586,-2.870681012,-1.070164854,-2.703567794,2.459830839,0.231333929,0.144820868,0.110925534,-0.467760113
-0.007832029,0.688045582,0.780251031,3.990882079,-2.397775499,0.72900414,-2.933529479,-2.734074535,-0.899289213,3.873314329,-1.947419484,0.793839886,0.110963175,-0.269298307,0.097275797
-0.113421582,-0.131212457,-0.43709772,1.5077675,-0.535958049,0.523722932,2.251289386,-2.820852967,-1.060891544,1.826022327,-0.771807111,0.513479788,0.009396617,-0.938918715,-1.195312878
0.128523924,1.210038808,-0.01617756,-0.780642419,-0.53696955,0.110801873,0.581955617,-1.090430901,-1.422536904,-0.749530132,-0.931935988,0.113100601,0.324613293,-0.022707414,-0.215078258
-0.061746811,1.712207538,-0.170541484,-3.744891704,4.852007874,1.425560316,-3.122751467,2.481810176,-1.379643969,-3.274041654,5.633732956,1.410600242,-0.065778638,0.713267572,-0.292881664
0.033921055,1.329473094,0.261565861,0.023275964,-0.774281835,0.888277433,3.011751465,-0.660476341,-1.260527046,0.042902541,-0.56039158,1.174417203,0.215005995,0.333707521,0.420312274
-0.078448554,0.846527219,-0.057397928,2.309053903,0.642083741,-1.164608712,-2.906385516,2.99546814,-1.231753936,2.257792957,0.506468695,-1.119097681,-0.203311684,-0.1770698,-0.480952481
-0.389626853,-0.124878468,-0.252303103,-0.608028545,1.435214486,0.24880436,-1.514502378,2.726909773,-1.198085781,-0.696739737,1.490229545,0.270676904,-0.561422754,-0.913756726,-0.5586877
0.226057191,1.26861178,0.340356523,-0.582811279,-0.947831618,-1.11092126,-1.496419856,2.819215915,-1.180992326,0.081899034,-0.618311773,-1.103761378,-0.124949557,0.120511529,-0.637929025
-0.327497389,1.168576527,-0.06531212,1.480641642,-1.371705545,0.283516176,-1.291490511,2.645632109,-1.377102175,1.582845959,-1.243457837,0.357651673,-0.397974718,-0.325813235,-0.564317321
-0.001859932,0.803724637,0.222956331,1.485358289,-0.518469874,-0.648307478,1.759867502,-0.203139588,-1.343862581,1.665161884,-0.516689504,-0.647388568,0.234930393,-0.123119392,0.292479532
-0.100443624,0.107352437,-0.299927608,-3.282075464,1.828500655,0.569361394,-2.472145402,-3.089961017,-1.053324605,-2.86251384,1.806406995,0.357491553,-0.004796086,-0.648330283,-0.769563735
0.125836668,1.281988686,0.497151283,-2.599635032,0.18186273,0.322926686,-0.573739298,-0.622421425,-1.288859928,-3.501800086,0.47508534,0.18659585,0.394400884,0.44193396,0.498684032
-0.133767036,1.45845286,1.217832963,-1.682533019,2.417983242,1.029775706,0.392441316,-2.728599802,-1.196810638,-1.56093317,2.027749643,0.902660593,0.01436307,-0.251078392,0.199433297
-0.161861743,0.166080023,-0.330443381,0.701725578,0.240970473,0.388919849,1.895928834,-3.133174407,-0.994385034,0.723493325,0.171310268,0.91344675,0.12324544,-0.712186842,-0.824204028
0.14209605,1.036480313,0.183031086,1.720869304,-1.468985021,-0.290158344,-0.57940503,-2.015314474,-1.554804822,1.842769432,-1.693693123,-0.411795405,0.278714071,0.120600269,-0.007182901
-0.10195336,0.436374832,-0.160475177,-2.223430807,2.01003607,3.680311635,1.349287107,-2.861554284,-1.175668255,-2.223398677,1.858705867,3.576508468,0.084801901,-0.178259148,-0.584699636
-0.058151064,1.582076202,0.277287801,-3.327163018,2.916437772,0.98410384,-2.079049835,-0.640928185,-1.492748903,-3.813659618,3.817452649,0.879072779,-0.002865104,0.616936038,0.653874206
-0.045218539,0.902695503,-0.299027896,1.501991845,-0.227748079,-0.751571252,2.649269594,-2.84032399,-1.317443522,1.57574953,-0.288431727,-0.724672708,0.07088526,0.045352936,-0.080144565
0.094402669,1.149065847,0.008767849,2.830252632,-2.016986104,-0.069263358,0.764477791,-2.955815459,-1.322806415,2.935514851,-1.94489468,-0.109285111,0.262557038,0.297808596,-0.372096335
0.239602825,0.99484254,-0.027908588,2.166702992,-0.856286609,-0.741074476,-2.744060959,-2.950431413,-1.52069901,2.10520402,-0.881524358,-0.832539199,0.273842717,-0.078091368,-0.078985528
-0.091842555,0.994332354,0.008685256,0.007289972,-0.059381779,-0.009880686,-2.50250479,-1.614017719,-1.462698568,0.013795154,-0.053827396,-0.017321081,0.003861526,-0.004193788,0.000845086
-0.234820968,0.818503939,0.314283587,1.460162586,-0.727209088,-0.818077084,1.939438815,-0.641639125,-1.430222147,1.538416774,-0.395630358,-0.784174504,0.097838459,-0.199311585,0.575951524
-0.016207636,0.646163791,-0.218565029,2.767280121,-2.661504528,0.177587109,2.650282382,-0.354505989,-1.456702537,2.333216598,-2.886506695,-0.108555963,0.182593062,-0.146402789,0.212044715
-0.150084944,0.143403409,-0.204400485,-1.475227508,2.458363067,-0.109254803,2.028980489,-2.83593666,-1.049631309,-1.08463476,1.938771836,-0.129385579,-0.042440238,-0.73287363,-0.782760483
-0.346065514,0.75401483,-0.24997284,1.966892908,-0.422560537,0.436563446,2.635964387,2.102057932,-1.15815362,2.349389444,-1.351341478,0.599823297,-0.846651903,0.021451985,-0.379361387
-0.11717204,0.779913122,-0.264223199,-1.164756217,1.43712952,1.10367304,3.098096506,-2.92248012,-1.228349594,-1.110705712,1.745979529,1.177735615,-0.116920636,0.372188447,-0.455989386
0.066483422,1.004632353,-0.023795741,-2.862652882,2.01015006,1.937994003,0.538364682,-2.99584818,-1.267708806,-2.807669909,1.946761244,2.061416479,-0.019043546,0.243816589,-0.346687151
1.008086276,1.545210353,-0.040124208,0.333967892,-0.562156571,-0.169880732,1.580478814,-0.203311287,-1.213619693,0.171250573,-0.511783411,0.029798092,0.675950682,0.429420114,0.29331983
-0.173674819,1.950906566,1.043660648,-1.173246256,2.197333519,0.016316673,0.255227126,-2.678869793,-1.197351757,-1.828885359,1.882588722,-0.054143793,0.073380307,1.683156249,1.091255108
-0.049276603,0.767874786,-0.200939843,0.458893487,1.957677473,0.463137051,-1.276594753,2.599722539,-1.299081153,0.371281297,1.849044108,0.778786012,-0.239038982,0.001545189,-0.377845219
-0.464580632,1.784973162,0.776750368,0.424041113,-0.98981005,0.574583521,-0.599081111,-2.538040466,-1.197996596,0.651304574,-1.141938149,0.651340149,-0.377663329,0.587721482,0.123966722
-0.001074794,0.834403657,-0.061982595,1.792030597,-1.704755318,-0.135916309,3.072478373,2.575734703,-1.456754835,1.885190784,-1.557766677,-0.09847964,-0.16660075,-0.03870596,-0.100796037
0.39567188,0.867974116,-0.308250537,1.657720928,-1.782144007,-0.519482185,3.088308704,2.882305398,-1.362773791,1.321766842,-0.937313777,-0.711574653,-0.090294667,-0.440385367,-0.014815258
-0.048800622,0.722102109,-0.030438526,3.390555784,-2.582259417,0.827531318,-3.068346167,2.580855138,-1.180656494,2.888855544,-2.113589503,0.398476005,-0.277370108,-0.290049143,-0.88977427
-0.682635037,1.419295402,-0.214965006,-3.133521649,0.828201475,-0.190607775,2.609522141,-1.695835723,-1.505723093,-3.038991017,0.871208532,-0.120559432,-0.31761564,0.321803223,-0.339815809
0.170732169,1.662254123,1.039324977,0.327554206,-0.565417813,0.199853333,0.745053218,-2.775769908,-1.184974627,0.342035657,-0.438610372,0.14845906,0.22355111,0.461381922,0.863247315
0.39927332,1.967410549,-0.395632921,-1.567082993,3.285009647,4.214912526,-1.941535456,2.144285976,-1.517164953,-1.529285845,3.445006335,4.149501277,0.510575281,0.864729043,0.213914591
-0.079745576,-0.076469165,-0.27426216,1.259496318,1.3873835,-0.065862712,1.076197246,-2.807249756,-1.048772545,1.318058387,0.702170417,0.124178682,0.102698671,-0.917418034,-0.805162759
0.136954828,0.595102765,-0.34242535,-1.014997036,3.050119458,0.837988369,-1.644062398,-2.632297328,-1.128967919,-0.969466395,2.747823091,0.903147279,0.231930479,-0.29398416,-0.098099425
-0.203038686,0.428746701,-0.131723033,-1.724828691,1.200319106,3.800261733,-2.29518452,2.47635977,-1.286508504,-1.633217159,1.245597834,3.590189642,-0.583318735,-0.150730335,-0.308429544
-0.042389216,0.79652953,-0.101296413,1.478882337,-6.482528473,-0.215843812,2.68261327,2.605025287,-1.415201713,1.60930384,-7.371275927,-0.229403526,-0.317582236,-0.270928104,-0.377032341
0.018998699,0.07835516,-0.268167227,-3.027869884,1.387611806,-0.503358022,0.064051015,-2.882689129,-1.104153439,-2.958574215,1.401032713,-0.533208416,0.265155702,-0.692774677,-0.793150926
-0.287612531,-0.051154283,-0.090861811,-1.808494978,2.267245024,1.828900105,-3.044945363,2.405928756,-1.195965299,-1.908251805,2.276394747,1.873688403,-0.495662976,-0.843340084,-0.529570681
0.776845357,1.398523465,0.01225415,0.973113921,3.551501492,-1.555489148,-2.603768657,-0.515731813,-1.308145706,1.305119008,3.539464702,-1.635700057,0.704376301,0.255349217,0.538417087
-0.495339917,1.83520738,1.442330808,-0.836630101,1.557780164,-0.900363018,2.676719187,1.840239487,-1.164662228,-1.122167961,1.497155946,-0.98942682,-0.411020563,0.647730568,0.902549707
0.069660278,1.521151837,0.336268181,0.335457994,-0.671619106,-0.056682971,-1.183505399,-0.589929937,-1.323484054,0.34782348,-0.62035658,-0.108413372,0.330718275,0.422541333,0.618396824
-0.423886466,1.346789125,-0.317322798,-3.802744743,2.422092365,0.492723528,3.03006451,2.417599797,-1.209424569,-3.360117006,1.335604249,1.354961879,-0.432015845,0.838450507,-0.461225525
0.23123423,1.078440172,-0.103070089,1.085872926,-4.262295568,-0.885950093,0.670208346,-2.539569519,-1.357784882,1.112359145,-4.230416054,-0.846881923,0.128391618,0.210575035,-0.24101433
0.07157544,1.496998714,-0.222987221,-4.236191166,1.612253754,-0.367892418,1.009482047,-2.85440694,-1.206963898,-3.601907444,0.797504649,-0.114150424,0.282291817,0.796046194,-0.449173329
-0.271308603,1.910355608,0.24648818,-0.636917138,-0.737448475,0.789258752,-1.603650571,0.784875258,-1.229595815,-0.384420657,-0.776010637,0.624191151,-0.179749621,0.981818553,1.172095175
-0.089472689,0.996292356,0.018181098,-0.009858512,-0.081459609,0.005157035,-2.648755583,-1.911888182,-1.53820015,0.000890063,-0.07470642,0.002179393,-0.004909719,-0.012402716,-0.000458532
-0.132982448,1.022492446,-0.330173407,-5.239349015,1.687887916,-0.21531728,-2.488212951,-2.785561123,-1.202965821,-4.303531675,1.957457647,-0.014066084,-0.177820975,0.28441754,-0.484054232
0.19023836,0.756865269,0.184715582,-1.574957381,-0.947465246,-0.361367863,2.383228992,-0.844883533,-1.492620376,-1.134838234,-0.682000147,-0.573249445,0.395371193,-0.148542163,-0.009818289
0.213635329,1.685942933,0.295599851,-1.640711161,1.626627139,1.64946683,2.97611677,-0.703524029,-1.298112493,-1.386595722,1.623948753,1.589395373,0.465869539,0.788081841,0.246248781
0.544963173,1.296291782,0.01703997,-1.1977886,-0.870150128,1.359510551,1.790874334,-0.270566708,-1.264050001,-0.986013671,-0.795189843,1.392668357,0.385808096,0.475754473,0.421505574
0.30677504,0.412466199,0.074419503,-3.526026437,0.108764213,1.338536568,1.268127794,-1.853017592,-1.194568117,-3.632148589,0.125714807,1.378629835,0.137957143,-0.183144533,0.015126438
0.481299575,1.365142972,-0.216055502,-2.344968391,3.472520622,1.411948231,0.191062284,-0.656283006,-1.337607491,-2.308886962,4.057583489,1.92720641,0.741684809,0.635991103,1.230339253
-0.358561774,1.520577997,-0.0783079,0.711305922,-3.444224526,-1.375340073,-0.79965103,-0.415056394,-1.163013757,0.55115004,-3.70900527,-1.362109691,0.149911613,0.607133188,-0.498152686
-0.161399654,0.838082588,0.078349861,1.570845149,-1.367500524,0.021160499,1.653688943,-2.031981946,-1.483020336,1.607380274,-1.398461431,0.031057821,0.104677855,-0.287380278,0.053730306
-0.063621465,-0.00848621,-0.248574895,1.095775343,1.587603442,2.597915558,-2.421215397,-2.86063775,-1.164233045,1.115500211,1.731166974,2.637622016,0.123616659,-0.978381821,-0.801335183
-0.358266091,1.626078146,0.206586408,-1.566643558,-0.776213451,0.32865269,-0.23127035,-2.855892193,-1.230383375,-1.669553886,-0.718374955,0.335013299,-0.323389808,0.639048478,0.436079538
-0.003690003,-0.087600876,-0.003327221,1.017334338,1.104332992,0.163320177,1.515521741,-2.716632414,-0.966683652,1.301282938,1.073408751,0.230389368,0.359353845,-1.026009979,-1.006059888
-0.088868576,1.116232157,0.014705924,1.343354511,-0.131208476,-0.502830585,0.761822939,-0.525589472,-1.261915281,1.210143418,-0.444294645,-0.370757255,0.052189828,0.089995219,0.494793479
-0.064565412,0.574988489,-0.118688179,-2.625250548,2.932961647,0.101435352,2.50416551,-2.772424141,-1.087138736,-2.582942335,3.060364436,-0.040217061,0.176776573,-0.221385032,-0.611174329
0.028915112,1.009340857,-0.008823834,-1.257180631,-0.620149463,-0.308576958,2.643949765,-2.827824412,-1.529541851,-1.31470136,-0.793450046,-0.335372227,0.081012005,0.223402407,-0.099306426
-0.076837831,0.210224514,-0.202274274,-1.166602104,2.295154586,0.995321483,2.803664556,2.183159709,-1.108221614,-1.22104916,2.285755467,1.667957513,-0.55976,-0.413656654,-0.606071554
0.147799693,0.77725285,-0.306628753,0.575340202,2.966082966,0.041202705,-0.445080283,-2.911013759,-1.236365303,0.613013739,2.829585064,0.101799677,0.193555215,-0.185619288,-0.633997126
0.175162463,1.156123141,0.078350596,-0.918905737,4.004443364,1.000877233,2.572619888,-1.620631356,-1.216483354,-1.105205393,2.710187076,1.001262194,0.369657111,0.305666557,-0.055132373
-0.033152261,1.117546354,-0.144493172,2.842778704,-1.512454048,0.101327783,2.914603945,-2.62027316,-1.430655443,2.701419437,-1.436114238,-0.010324936,0.031068364,0.12631036,-0.059765724
-0.137943007,1.256434023,0.064167635,-3.780697794,2.210563345,0.374165089,1.165773779,-2.743305733,-1.358962393,-3.902799288,2.285963025,0.594268067,0.079843291,0.847211805,-0.517148564
-0.248470821,0.530869826,-0.189913492,-2.551879216,0.857216205,0.250558469,2.756826586,-2.709866926,-1.070235693,-2.417991191,1.572414465,0.256878619,-0.126694069,-0.215169681,-0.7282541
-0.100247381,2.157396066,-0.032414039,-1.391480149,3.411620297,3.571369791,2.710916262,2.297655863,-1.363591555,-1.245682967,3.146777525,3.519516815,-0.007551106,0.977546923,-0.213885375
-0.122763455,-0.146866655,-0.432388333,-1.020377386,1.351008531,-0.225428303,0.61069248,-2.923292211,-1.042457494,-1.083549424,1.344241312,-0.120672039,-0.10031347,-0.733795693,-0.9536782
-0.217072551,1.079494208,1.5195773783,-1.751797304,0.274742003,1.370242598,-3.033773374,-2.756663636,-1.413657468,-1.727888306,0.052819804,1.381436652,0.092565268,0.179381758,-0.098573615
-0.173587361,1.766003328,-0.005207788,-1.465061005,0.759676514,0.180882917,2.949953977,-2.614870981,-1.536186613,-1.447836922,1.172762867,0.196367998,-0.017124405,0.773106715,-0.040258354
-0.186580601,1.366550686,-0.029116731,-2.103055179,-0.343683113,1.422960834,-0.027114151,-2.835603387,-1.488255374,-2.144007551,-0.599316717,1.427280219,-0.099838705,0.76676958,-0.381652936
0.16562086,1.504773315,0.420901547,-0.564672143,0.195907759,0.998405665,0.742412659,-2.509649182,-1.295421824,-0.696783217,0.159316922,0.796889074,0.376717527,0.365958304,0.556424559
-0.134867791,0.955743228,0.317242845,1.667378849,-0.63036123,0.57973233,-0.864444183,-3.119881151,-1.305111804,1.925623215,-1.047114227,0.691942899,-0.037042603,0.045898938,-0.13225232
0.11193231,1.230500889,1.25840913,0.429164418,8.488490089,-1.164984866,-1.609145059,2.749310552,-1.215965472,0.350462304,6.645325952,-1.200438604,-0.272117414,-0.267561376,-0.480056921
0.297840727,0.83497373,-0.060230055,1.211046499,-0.523602004,-0.41422578,-0.912184936,-1.94189293,-1.230193532,1.412658059,-0.717389755,0.309436097,0.520293124,-0.161737492,0.255617658
0.31589454,0.805713562,0.052096229,-3.911291293,-0.588730813,0.853882076,1.155821865,-2.569126583,-1.53358098,-3.914877611,-1.236242389,0.813620254,0.499020477,-0.167749442,-0.081320667
-0.145956679,-0.04696559,-0.256854196,-4.086161365,1.442633885,1.103465524,1.003849914,-2.743979092,-0.828615963,-3.842768012,1.559318257,1.019064733,0.1015591,-0.633290524,-1.051110162
-0.002385262,1.688816431,0.145360354,-2.130158412,0.686947036,1.511046368,-0.479503341,-0.467333625,-1.314234129,-2.121568418,0.432563089,1.448006069,0.126683642,0.929082762,0.602497174
-0.068357902,1.017145422,0.403411573,1.468966513,-0.190042334,-0.647254262,-0.517830798,-0.574927959,-1.341135629,1.436560654,-0.266071281,-0.570045879,0.278062418,0.001505712,0.487301603
0.269416004,0.882860765,-0.159139083,1.265767818,0.020205026,-0.721749458,-1.866280618,-2.848651652,-1.182225243,0.870253864,-0.595747177,-0.921075283,0.267282673,0.019929858,-0.510123645
0.002361698,-0.164264402,-0.366341315,-1.158580112,1.215157645,1.669252064,3.122455141,-2.851707054,-1.086658173,-1.055517392,1.235642355,1.702038453,0.198919945,-0.822397288,-0.929335732
-0.15803293,1.406654232,0.218686824,2.115876788,-1.6363147,0.80794304,-0.559112878,-0.652335531,-1.24597734,2.38341068,-0.934304143,0.844856313,0.330938827,0.488605433,0.602794445
1.475187811,-0.024217127,0.025957776,-0.122472742,-0.202655,1.304665527,0.552763602,-2.9277302,0.997641392,0.971620977,0.439316274,1.098202308,-0.019754074,-0.01294611,-0.026631477
-0.049678581,1.457336307,-0.009723173,-1.786609762,2.129401774,3.59628803,0.181249298,-0.662192573,-1.521604783,-1.66945012,2.123370629,3.444438358,0.340043886,0.231983402,0.31828029
0.546271761,-1.181149898,2.004026961,-0.604578818,0.443310282,0.88414145,1.671133702,-0.450650106,0.886832239,0.853539139,-0.527214006,0.083431063,0.371851594,-1.52344423,1.095057433
0.038585663,0.9676342657,-0.116728138,-1.679160616,1.344906887,0.153166637,2.448025248,1.951139303,-1.190662046,-1.6833,1.252810785,0.322771409,-0.122334895,-0.608770436,-0.165421663
0.165897183,1.033529783,0.322595384,1.522489702,-0.02360768,-0.858982303,0.741396021,-0.396782083,-1.287827599,1.525622852,-0.081159101,-0.8303909,0.156722513,-0.109615461,0.255852716
0.070800668,0.287295023,-0.307938634,-1.427767486,1.131281511,0.06362142,0.066682041,-2.810621654,-1.0084562,-1.485863399,1.231103157,0.114190936,0.233353558,-0.460324342,-0.776602697
0.8197815089,0.83722191,0.048780597,2.446542935,-2.126078567,-0.19635569,-2.114469638,0.482880772,-1.515209838,2.6533483,-2.180007018,0.108624328,0.499826488,-0.284989124,-0.153732658
0.174535081,1.224421401,0.125471738,-2.36208932,-1.207614078,0.866373989,-2.66720368,-0.740513919,-1.439430233,-2.365254063,-1.215904501,0.879135732,0.459775986,0.407906644,0.869539188
0.120224475,1.410578017,0.097250679,-1.840369311,-0.23727564,2.337260085,-1.640304559,-1.098298193,-1.246332854,-1.748040719,-0.116812186,2.29750029,0.142529889,0.535302362,0.696219021
-0.103634684,-0.00816214,-0.260857768,0.505713927,0.507276449,0.334463221,0.957672944,-2.837439032,-1.026326267,1.252802953,0.318914999,0.382810421,0.038979731,-0.96428315,-0.760127784
-0.005763035,0.33919805,-0.196750048,-1.039348024,0.294447268,0.462575374,2.964374268,-2.903931576,-1.075228769,-0.931015177,0.314565646,0.497155925,0.176344275,-0.082798922,-0.752433064
-0.163366725,-0.027162372,-0.210650029,1.307591127,2.146642949,0.881544819,0.414445199,-2.903303494,-1.004062369,1.304001959,1.689891618,0.761238451,-0.133705354,-0.930668554,-0.801009101
-0.466184014,0.799970061,0.05892423,-3.726338268,-0.390735189,-0.778038386,3.010883151,-2.816912084,-1.183219742,-3.659085788,-0.616795215,-0.379805816,-0.194478927,0.240701254,-0.116716185
0.120984209,0.714672926,0.08121999,2.153970722,-1.765864551,-0.15848705,-0.980387892,-0.529242903,-1.473472546,1.98975878,-1.82174073,-0.1027862,0.168417188,-0.284597489,0.277698509
-0.281593313,1.308438337,1.083785875,3.127010618,-3.429680042,0.677541878,3.079002103,-2.79993402,-1.340780262,2.924788956,-3.099118727,0.376155271,0.066553512,0.188871839,0.651581517
0.035351322,0.063195829,-0.091857799,-1.892254894,0.394344279,0.401712942,1.110943462,-3.004873416,-0.962325326,-3.795103159,0.25417883,0.41744107,0.110344645,-0.732213063,-0.753936852
0.068276128,1.223402203,0.013820639,1.564801523,0.368179092,-0.845107814,0.355247705,-1.144348581,-1.255084189,0.898301683,-0.232857788,-0.301879844,0.241555492,0.024792069,0.083404571
0.296968035,1.198119704,0.12925583,1.801672358,-0.442033571,-1.969475063,1.642263154,-0.496998544,-1.269999952,1.882643992,-1.466526974,-1.867421177,0.174207197,0.095599679,0.165192819
1.336231417,0.783346465,0.14363362,2.380721141,-1.981767617,-0.161839135,-1.341587522,1.225349256,-1.472173806,2.405567973,-1.352242468,0.401255861,0.662964865,-0.165539867,0.104097501
-0.578519858,0.381849649,-0.069604,-1.921379682,1.285336454,2.197305809,-2.402177616,-2.339035433,-0.846682074,-1.92506951,1.339623822,2.156566138,-0.20364197,-0.280288826,-0.423808553
1.613288181,1.665304215,1.727852959,2.127765916,-2.384969096,0.283320476,-3.106689754,2.140482919,-1.116812322,3.02425901,-2.587548066,0.772069264,-0.152416627,-0.015436613,0.817640798
-0.009838019,2.159893739,0.317876343,-3.536590733,-0.330443503,0.595142798,0.651565001,-2.659921805,-1.311300858,-3.025899685,0.009728211,0.339366463,-0.026071937,1.03641672,0.314002609
0.282115359,0.946174902,0.034539903,1.640812391,-2.617385466,-0.067613228,1.058913222,-2.684703496,-1.459025745,1.797489523,-2.476349204,0.085968235,0.262305499,-0.046697293,-0.137866069
0.082035191,0.947738725,-0.162276378,2.955366639,-2.254965499,0.55407082,-1.560517253,-2.908985451,-1.391285447,2.811977631,-2.003367353,0.478203927,-0.177125405,-0.089150015,-0.460701486
0.295675219,0.569362814,-0.187246031,1.720802093,-5.05233111,-0.799348209,-2.697628913,3.028670516,-1.379487901,1.746999465,-6.596063451,-0.736501516,-0.111783089,-0.373175658,-0.088149688
-0.326374737,-1.157825279,-0.277891976,0.764646751,0.836411599,0.88654888,-1.082492279,-2.711961066,0.0256934,3.469616828,0.215931351,1.494971232,-0.208859866,1.185653755,-0.3838764
-0.151558701,0.37445706,0.228063288,0.487340379,3.624722095,1.107770778,0.883421235,-2.739296278,-1.073312889,0.041061111,3.354078849,1.161989195,0.094856883,-0.574890667,-0.485087838
0.718175112,1.313148927,0.162946238,-2.851722714,4.287716849,-0.024836741,-0.564161259,-1.20909766,-1.289326943,-3.488874605,2.698185672,0.189735255,0.874773191,0.425090352,3.719428582
-0.586507471,1.016752272,0.59153268,2.80268125,-0.565082588,-1.81460051,0.067942863,-2.590079038,-1.178703906,2.844264573,-0.605812902,-1.844702951,-0.360409536,-0.317184793,-0.141728579
-0.022220266,1.220242372,-0.08706432,1.979675295,-2.14123137,-0.222124432,-2.807145944,2.769902335,-1.354060129,1.58696719,-2.804936213,-0.203900973,-0.172782881,0.232217222,-0.251692621
-0.173132377,0.004933562,-0.256209205,-1.304398202,2.036608533,1.710398097,2.778409334,2.179023486,-1.115500741,-1.419269533,1.984402237,1.721737284,-0.610186481,-0.820180627,-0.516186197
-0.068072688,0.827487758,0.144733452,2.075114828,-2.132880348,-0.345892271,2.481346929,-0.779736472,-1.334098566,2.141148904,-1.956640328,-0.553333147,0.195422029,-0.168111558,0.224043392
-0.675438857,0.872908603,-0.228633874,-3.201401117,2.510172302,0.549745017,1.391037902,-2.724823318,-1.091123883,-3.326901938,2.477019699,0.452829252,-0.621399766,0.003914364,-0.419667696
0.106013741,1.066277237,-0.070134921,-0.137461052,-0.116946316,0.079225221,-1.191560782,-3.119795927,-1.373187396,-0.091428418,-0.060738438,0.093432025,0.012326102,0.146689563,-0.022012567
-0.446851426,1.602446011,-0.231961931,-3.591006749,6.446139974,0.715166726,-0.355255658,-2.214397384,-1.372357284,-3.038611462,6.098933815,0.973131888,-0.283146493,0.846418381,-0.503711661
-0.442892858,-0.002698609,-0.260510123,-1.691700741,0.972806415,-0.468359404,-3.075992933,2.562433778,-1.221539999,-1.798145043,1.055692862,-0.431185815,-0.522150424,-0.821575899,-0.506575274
-0.0252,0.962936712,-0.549239954,-0.641147826,1.273732365,1.747980979,2.998021751,-2.83370581,1.256568998,0.027287566,-0.100563,1.688691736,-0.00978616,-1.229003029,-0.983274536
0.316198524,1.627345293,0.607071659,-2.444259805,-0.75921907,0.951807611,-2.07632977,3.076926896,-1.439823467,-1.53086329,1.325672628,0.739127196,-0.285996285,0.677721285,-0.5770884
0.58030899,1.598700923,0.461288018,-2.557776324,5.637809537,1.530282458,-1.75034066,2.672870925,-1.377449132,-2.737406996,4.69570432,1.292464408,-0.599788542,0.821759653,-0.578053621
0.013462676,0.154323346,-0.28548213,-2.081363327,3.487577504,0.766137289,2.023252669,-2.849525198,-1.102113398,-2.111953799,3.428770339,0.899298396,0.144171737,-0.639895419,-0.685390774
0.13056567,0.987132312,0.047422015,-0.007833251,-0.031046297,-0.01934707,2.795886971,1.712637851,-1.521394347,0.008675492,-0.029958116,-0.014018008,-0.016874952,-0.014707767,-0.000717739
0.047923449,0.152697532,-0.311114086,-0.843691115,2.362931158,1.491511954,-3.009695034,-2.883955645,-1.182168607,-0.967567731,2.402039927,1.472674518,0.216855229,-0.564010337,-0.683220613
-0.040365789,-0.058026035,0.02726826,-0.405766959,0.814456104,-0.020124998,-2.122284471,-2.746535352,-0.814575515,0.083792318,0.830255174,-0.111440081,0.161372393,-0.780281782,-0.659467195
-0.650334184,0.767664063,0.000408172,-0.368638704,2.385727788,-0.282231723,-2.125550784,-2.837895424,-1.197987224,-0.40774867,2.459641019,-0.325156588,-0.238413227,-0.001872465,-0.205265575
-0.030256993,0.99517812,0.965752696,2.283943362,0.702678806,-0.95286576,-0.264284031,-2.85318932,-1.021039516,2.221818757,0.382521234,-1.04802456,0.131740232,-0.281563953,0.138351129
-0.027568423,1.704826946,0.252518171,-0.597671239,-0.025578285,0.231497066,-1.32017768,-0.673896493,-1.276500842,-0.282586274,-0.34697782,0.269637114,0.249975998,0.758187595,0.61179338
-0.071537849,0.073966736,-0.280223099,0.616636434,0.995639416,0.771705948,3.053848445,-2.801841735,-1.032055046,0.577959785,1.033198513,0.699156961,0.055727473,-0.800804017,-0.811832373
-0.37566322,1.368594017,-0.309337335,-3.034827168,3.626846951,2.958160621,2.731115315,-0.747358097,-1.550092758,-2.691478112,3.956442154,2.701486524,-0.300600526,0.296101859,0.003796169
0.068423319,0.581622028,-0.475226866,1.025113886,-1.89427803,1.358525184,-2.592003071,-2.958393233,-1.169622544,1.174116286,-1.41065721,1.081839166,-0.067953365,-0.271537458,-0.628667241
-0.058309088,0.133651589,-0.380290573,-1.863492416,1.551527019,0.264788542,-0.013936135,-2.900700779,-1.04950803,-1.928065616,1.650994126,0.250563816,0.012396833,-0.764125094,-0.847089205
-0.101016759,1.46295734,-0.826822075,-3.298574762,0.005618521,0.440782905,-1.166933431,-1.883098436,-1.391875047,-3.398562031,0.410238263,0.534194863,-0.114305243,0.498152111,-0.246686364
-0.305860709,0.568926933,-0.332996334,0.072558199,-0.068145019,-0.652702679,-0.249173885,-2.767655632,-1.130925432,0.135166993,-0.318277073,-0.534115849,-0.52735376,0.110051066,-0.55816274
0.061293464,0.773767314,-0.2133997,2.7332245,-3.057886545,0.3567568,-0.56062208,-0.64471736,-1.439764118,2.766305729,-3.097028826,0.298782849,0.1233025,-0.212776592,-0.230760485
0.090669314,0.937347849,0.114029529,0.89767028,0.668649853,0.907949636,-1.958711933,2.351336261,-1.472748826,0.426930388,0.756150937,0.856222553,0.009271583,0.031460205,0.014715668
0.11467291,1.350593635,0.215345486,-2.720989204,0.533402815,4.218463427,3.025567835,-0.40752366,-1.356986821,-2.538621405,0.724019676,4.265328891,0.285655652,0.485358401,0.406242576
0.464714318,1.238420969,0.084841453,0.73134107,-1.016625949,-0.568162124,0.251096235,-0.529713658,-1.29793573,0.767306993,-0.968142411,-0.536045566,0.707785436,0.169158285,0.362546862
0.232601514,1.395778922,0.234344616,0.748470768,-0.370815806,-0.635638508,-2.569525753,-0.571603216,-1.25720806,0.580765062,-0.800318357,-0.697179378,0.213987348,0.49175784,0.485872942
0.229795724,0.658512015,0.664065123,2.629991257,1.132384955,2.248516747,-2.279169842,2.636367512,-0.973387119,2.605241401,1.159212351,2.245770026,-0.563698523,-0.613619484,-0.363063746
0.252678312,1.404444262,0.245691479,-2.454004154,1.835505391,-0.017289333,-3.070193484,-1.081569497,-1.387703601,-2.299271447,2.153273031,0.034069252,0.418189438,0.28251361,0.116987933
0.083151958,1.043114392,-0.245600578,-2.439049736,1.809623644,1.775076952,-1.070667358,-2.531038342,-1.19848083,-2.231543235,1.706946915,1.661189161,0.267523798,0.496754646,-0.555792191
0.080575405,1.143232859,0.175339805,0.110224962,-0.985328337,-0.102711134,-0.32515354,-0.462887621,-1.247301489,0.131207192,-0.864263418,-0.259493359,0.163062383,0.097087733,0.676275511
-0.774513774,0.980232013,0.154383268,2.117750345,-0.69865393,-0.728858501,0.919542446,-2.570082896,-1.393391033,2.005245415,-0.614099371,-0.80887668,-0.314518937,-0.071875793,-0.192881846
-0.2556183,1.38969209,-0.053597003,-3.019553861,0.747504786,0.368593179,-2.34521913,3.099813895,-1.394871767,-3.737731696,0.757156737,0.61174113,-0.268443399,0.535509129,0.633692081
0.009066584,1.131912001,0.043301553,-2.429082326,1.299791601,1.139514543,-2.1896979,-0.589514281,-1.382830695,-2.460497731,1.152726745,1.075640616,0.088311938,0.240785362,0.263156729
-0.173165784,1.327600909,0.026176632,-1.189245956,1.780246815,0.586578519,2.384679808,-2.80599854,-1.299999195,-0.80679691,1.743404853,0.917731975,-0.095128954,0.409142046,-0.0770186
-0.33976513,3.348315533,2.073137333,-1.520620401,0.855499756,0.598448985,0.893218916,-2.727188288,-1.148453731,-1.931678287,1.080988233,0.795220098,-0.097555178,1.603625308,2.073941347
-0.243771688,1.480060458,-0.099414509,2.546786161,0.174087239,-2.908157889,2.333374842,-1.086082714,-1.412622727,-2.669180733,1.709438607,0.9582052,-0.182733222,0.544373185,0.160647303
0.110336646,0.678651573,0.023912705,2.27709315,-2.282426873,-0.050108971,-0.370966348,2.69662734,-1.38353997,2.065195511,-3.342265778,-0.223276209,0.309819745,-0.278613617,-0.399662868
-0.205923438,1.137340705,0.075263871,-3.129451454,1.22681029,0.366271362,-2.924605486,2.174512361,-1.294519449,-3.262303852,1.254508881,0.355826123,-0.062222413,0.484620109,0.469415783
0.043243158,1.207756826,0.465242918,1.98896501,-1.090601537,-0.127132473,-0.572387614,-0.762107874,-1.262741365,2.194349875,-1.261022629,-0.042109023,0.182979365,0.119650438,0.523181127
-0.005003588,0.979654095,-0.349684892,-2.079734407,2.249890556,1.342367005,-1.798252437,2.443837871,-1.271766555,-1.767469736,2.182087309,1.41343125,-0.220198632,0.214138424,-0.51749985
-0.025516382,0.694486848,0.111888276,2.986899012,-1.558218203,0.321830632,-3.054310094,2.64044871,-1.357378814,2.956214352,-1.869890452,0.319014562,-0.30134448,-0.023235751,-0.319958852
0.243106327,1.045863698,0.222385253,1.445746192,-0.811982301,-0.526403672,-0.261471656,-0.537963585,-1.305038462,1.629890043,-0.877163752,-0.429938581,0.051380583,0.050948163,0.263005473
-0.312659097,1.624282611,-0.235350133,0.546672425,-0.589108362,-0.214138286,-3.073407801,2.675646123,-1.13224713,0.352489321,-0.541813529,-0.084449588,-0.455909812,0.725372115,0.276171439
-0.10303826,-0.031888038,-0.09942455,-1.900377848,1.811141821,-0.081985973,1.255698969,-2.881305631,-1.055925206,-1.512674452,1.597188264,-0.061862056,-0.004254485,-0.919547831,-0.683462074
0.192272778,-0.020671729,-0.276349707,-0.613193489,1.379049823,0.11428063,2.7672,-2.794957868,-1.051036113,-0.701673601,1.471602446,0.073571136,0.505872516,-0.77420747,-0.757814506
-0.202272104,1.141374957,-0.147625186,3.134177926,-2.620016075,0.222557891,2.954398684,-0.894465397,-1.455280803,4.000044687,-2.19803402,0.293083876,-0.108382236,0.1844936,0.003729702
0.592527938,1.312151196,-0.382040215,2.792532065,-1.707223996,-0.053978171,-0.344058261,-0.94222958,-1.417966487,2.67159961,-1.518512589,-0.229698752,0.742426705,0.267075387,0.12069928
0.17576694,1.453125814,-0.785151112,1.933088573,-0.891168523,1.583716382,3.012815526,2.343702604,-1.191293021,-0.994816813,-1.227279581,1.578681217,-1.066910674,1.022400702,0.221287231
-0.008724791,1.068163008,0.285141008,0.696656224,-1.413905948,2.452171295,-0.439183511,-0.627374311,-1.344496845,0.786196425,-1.919459874,2.644776004,0.062901795,0.185714029,0.45797864
-0.263178145,1.918897949,0.131448005,-3.449922062,2.232200029,0.58501374,0.926056209,-2.054950217,-1.467425274,-4.588526199,3.03565523,0.495913822,-0.392710379,0.926991565,-0.220571314
0.008027782,1.062790268,-0.043189772,2.574177341,-1.215924241,0.132037536,2.599823794,-0.52572386,-1.449835297,2.417155169,-1.239102541,-0.042620205,0.043762714,-0.016975818,0.061771991
0.024043313,0.169165608,-0.322616478,-1.648974142,1.764685793,2.096570601,0.632648146,-2.898222504,-1.130265468,-1.745742055,1.652469368,2.112468287,0.043543426,-0.509966136,-0.707522228
-0.224066728,2.314307426,1.920595582,-3.686734281,1.859468232,-0.363427181,-2.082555373,-2.640731568,-1.186848446,-3.904478755,1.123091392,-0.582012203,-0.53984291,1.736958957,1.771930746
-0.308207281,1.575207898,0.10984786,0.313979564,-0.363184356,-0.044597305,2.795696856,-0.93156548,-1.169908801,0.174921267,-0.903444727,0.03915097,0.35803279,0.689248939,0.552556302
0.251004349,1.39028503,0.417599382,0.280798377,-0.870521098,0.204378572,0.777309348,-0.646678944,-1.28588776,0.321204952,-0.738613348,0.283209199,0.801070759,0.324297237,0.345825753
0.025104436,0.966999955,-0.855155398,3.189354068,-3.160582543,0.303518089,0.606142774,-2.744506737,-1.207953354,3.1188475,-3.063105782,0.382564787,0.2419398,-0.306277622,-0.779583151
0.067130591,0.452872278,-0.174981304,0.195758269,1.495092632,1.450702245,2.021307835,-2.83363436,-1.042062803,0.078808941,1.607798805,1.505803895,0.159263447,-0.278198049,-0.713880089
-0.607034761,1.353422585,0.026720523,-2.711274455,-0.128867898,1.019260273,2.706000108,2.140184567,-1.186853804,-3.627737576,2.167637992,0.63073041,-0.799545319,0.979102082,-0.29906927
-0.511469847,1.630802644,0.531462388,-3.609477813,-0.952643826,0.376185127,1.298023083,-2.592007799,-1.498767429,-3.630452025,2.0116578,0.742730183,-0.627193504,0.634438825,-0.262291781
-0.351881992,1.918019959,0.162319802,-3.92056916,6.01326114,1.193468213,-2.253426113,-2.309311485,-1.465024937,-4.437604901,7.595320129,0.800656872,-0.127364119,0.895837956,-0.443515573
-0.039122207,0.182807998,-0.300862381,0.035687639,1.232411356,0.203582108,0.899080523,-2.804880726,-1.004523565,0.231403188,1.159328342,0.201574851,0.165015325,-0.637946172,-0.747150639
-0.181363868,1.200971751,-0.039926938,2.16555299,-2.194992552,-0.199079501,-0.93258068,2.777210237,-1.40650493,2.281218384,-1.911399339,-0.112961191,0.160638214,0.462975618,-0.481494363
-0.277691825,1.892251756,0.480134522,-2.218812293,5.535141475,1.332926077,-0.047168189,-2.814425874,-1.368919254,-2.281940643,3.363601614,0.981031079,-0.363640759,0.981850956,-0.352341216
0.151394883,-0.102356984,-0.263688295,-3.337486316,2.189926419,-0.006282321,1.564984214,-2.834073411,-1.009450177,-2.838430321,1.638620745,-0.103581155,0.264866517,-0.992121966,-0.731311189
0.105197366,1.060684523,0.151589512,-2.054214982,-0.979,-0.111022224,0.580350024,-0.50404039,-1.278897348,-1.914561679,-0.241835125,-0.142563268,0.20881505,-0.178224027,0.666697609
0.532817952,1.404752851,0.026887383,-3.852160783,0.21758738,0.384668353,-0.40299345,-0.645571318,-1.324593931,-2.729899466,0.013246347,0.374295853,0.32628473,0.486099145,0.38979226
0.78285154,1.949055368,3.187307517,1.568599209,3.252556388,-0.068116365,1.804701438,2.285473737,-1.226667687,1.071948504,3.366727919,-0.102783312,-0.602550959,-0.643299298,-0.086777825
0.142172524,0.913629465,-0.085931987,2.235090896,-2.904616232,0.128769698,0.651856068,-2.914649618,-1.466777838,1.683132535,-2.390644519,0.037787549,0.162524846,-0.075078595,-0.190205753
0.065590366,0.181979626,-0.305256435,-2.009828181,2.276026128,0.522493814,0.114776557,-2.813036744,-1.164273611,-2.068947276,2.211480526,0.517886098,0.093157842,-0.668239675,-0.705232697
-0.470064948,2.084448841,-0.251956765,-3.918975465,4.477595275,0.800070945,2.115203223,2.013562708,-1.390501054,-3.098300274,4.526677829,0.712101936,-0.920870489,1.231334289,-0.112200858
-0.170928579,1.017795753,0.090135101,2.384006944,-3.039192226,0.743922571,3.080303538,-2.704219655,-1.141964203,2.031898971,-3.484192459,0.850941042,-0.052367824,0.260064991,-0.291129431
-0.720078336,1.413527697,0.470062947,-1.639574749,-0.291727434,1.447370856,1.793885427,-2.775707041,-0.920995547,-1.800819105,-0.70877158,1.299901262,-0.596788193,0.540135883,-0.486000579
-0.320665694,0.155091767,-0.132380473,1.775390106,1.407053853,-1.785264504,2.900280916,2.246010041,-1.097662322,1.446385594,1.662834734,-1.883252628,-0.646603696,-0.732306903,-0.346048553
0.383304623,1.013064092,-0.223335934,2.136549553,-2.797506437,-1.681311121,-2.360924007,-2.884380258,-1.351174016,1.763042991,-2.26996242,-1.510557589,0.285605453,-0.037776679,-0.378445134
-0.060502332,0.961622221,-0.135909348,0.477424832,-7.451783206,-0.822834656,2.141481343,2.082343565,-1.393069187,0.507501595,-9.557712565,-0.810023176,-0.618387197,-0.447367885,-0.463818112
-0.347065574,-0.075453828,-0.328119693,-2.378191575,1.510545227,0.267062506,-2.912562715,2.629187841,-1.049803835,-2.231926101,1.545848863,0.316113571,-0.477814332,-0.821439524,-0.794667536
-0.177633466,2.58934627,2.184269691,-4.379763192,4.187382536,0.826877949,-0.16607294,-2.735482205,-1.390150945,-4.669088814,3.561623338,0.671545913,0.523059941,0.847963,1.790116716
0.161449143,1.048411356,0.415816235,-2.728486236,0.493253332,1.328205181,-2.855455853,-2.760004142,-1.381051025,-2.65968009,0.516857186,0.822167806,0.422196392,0.469608136,0.462625425
-0.180410217,1.54923415,-0.223064888,0.072708471,-1.50662768,0.375059808,-3.015055108,2.735085309,-1.271608251,-0.117224815,-1.598617037,0.31342819,-0.232734558,1.0925669,-0.640424063
0.76169975,2.875509587,0.556109285,-0.548108525,3.14175588,-1.699446179,-1.472586911,3.038430851,-1.055390114,-0.918369841,1.608097549,-2.176426325,0.503132744,1.396022533,2.229833199
0.154512732,0.99474074,-0.676504568,2.428234553,-1.932887645,0.970137674,-1.986451634,-2.764044366,-1.254519709,2.488415322,-2.173858967,0.909267253,0.327800302,-0.219589777,-0.679767856
-0.018703992,1.406887824,-0.714669035,-2.908104045,-0.362754302,0.934150186,-2.588263341,-0.066494975,-1.434856576,-2.707709513,-0.047086545,1.01048438,0.046009084,0.352429519,-0.06854496
0.02245249,1.557491913,0.571235875,-1.618777837,0.102591506,0.200566413,-0.55325745,-0.575378131,-1.301867966,-3.671384638,0.069255336,0.101501569,0.491539468,0.592790276,0.735997959
-0.009830688,0.86872907,-0.40526423,2.308080102,-1.512395273,-0.09022019,-2.14595306,0.113953397,-1.436723598,2.245012894,-1.638769353,0.045804641,0.120154021,-0.183987164,0.053575171
-0.834293519,1.058453537,-0.32317354,-0.828953894,2.712457542,3.197883236,-1.243035141,-2.793419126,0.483565743,-1.117420551,2.980694302,3.24375238,-0.554974093,0.786728206,1.395509549
0.169939898,0.773699502,0.4264216,2.106674064,-2.175772339,-0.724694947,2.811932987,-0.484066091,-1.412229824,2.110131075,-2.151347417,-0.850461978,0.159088515,-0.081653019,0.509124211
-0.102292544,0.234855652,-0.312649133,-1.397734786,1.760969556,0.594461118,1.099694616,-2.874148997,-1.189796486,-1.452276929,1.857598386,0.658734858,0.056087385,-0.519255052,-0.762429677
-0.047719723,0.800540915,-0.132227046,0.88102392,-8.261165495,-1.024852189,1.794371362,2.410740382,-1.467177677,0.846281513,-7.84262523,-1.031607827,-0.004364087,-0.396620131,-0.243942965
-0.036636208,1.049264702,-0.158057808,1.035806468,-1.437980888,-1.254304217,1.97780076,-2.788635028,-1.359628114,1.032881674,-1.495453251,-1.250002914,0.115867437,0.388449336,-0.532152851
-0.242604084,0.367438592,-0.172660702,0.494940316,-1.119157738,-0.075607012,-1.218076754,2.676311026,-1.17448892,0.908089818,-1.285185297,0.086933063,-0.457370011,-0.056262093,-0.374791254
-0.476719855,-0.006355628,-0.228488144,-0.036385592,0.890455217,0.615058197,-2.96597158,2.577155446,-1.092934265,-0.067447117,0.652174207,0.501287352,-0.648817324,-1.026340771,-0.586334919
-0.277029573,1.170393631,0.751982953,0.39123,0.395107256,3.987706809,-2.866474426,2.490714607,-0.647894051,-1.202890072,0.071736085,1.874052203,-0.382606976,-0.026876152,0.042412699
-0.098054494,1.390620187,0.375033787,-2.5918093,0.453574878,0.395498036,-1.65200882,-0.415276842,-1.333077993,-2.770908325,0.606307107,0.31379152,0.011291297,0.527322948,0.656065025
0.33113298,1.484143181,0.14014824,-0.030028333,-0.682964882,0.125266587,1.360730684,-0.506283172,-1.097837801,-0.238451823,-0.918851583,0.082413667,0.545518276,0.744244294,0.298408607
0.057275768,0.009057559,-0.343788509,1.549996032,0.417066015,0.25212509,1.119494833,-2.678828817,-0.821864826,0.889561211,0.477161628,0.220365702,0.272579424,-0.856376135,-1.023363154
0.107960892,1.092267125,-0.592229509,0.239518519,1.213969934,-0.165116807,1.377702854,-2.722901372,-1.212393991,0.113259051,1.019378446,-0.1688599,0.155689331,0.060715928,-0.833619292
0.28232152,1.555672981,0.185614574,-2.14653128,2.649763516,-1.118162596,2.805669942,-0.774334181,-1.253631628,-2.002555609,3.482369312,-1.028101922,0.447940692,0.652041543,0.057676082
-0.052606594,0.161949836,-0.245284973,0.041042152,0.649655593,0.504426162,1.859097982,-2.764845695,-1.004483561,0.018355899,0.598185446,0.416720546,0.201232441,-0.628853016,-0.765311178
0.184368776,0.931494169,-0.346898577,1.863906297,-0.485999062,0.300745547,-1.627272983,-1.524690418,-1.210749692,1.973112827,-2.285795451,0.326097007,0.20297671,0.061830585,-0.611444438
0.297785425,1.797808078,-0.063894054,-3.159232036,4.405818462,0.080968447,-2.560976512,2.845906592,-1.381107909,-3.522994507,3.570393385,0.010430326,-0.419156827,0.912918916,-0.052089073
0.104636354,0.597825394,-0.447333717,-2.385615538,3.445063373,-0.214057648,-2.273183306,2.734980752,-1.150130611,-2.433654752,3.408389533,-0.232793601,0.327395839,-0.101336769,-0.792623555
0.091666723,1.0891562,-0.078123413,0.595556827,0.201625011,-0.083855675,1.459413642,2.07887103,-1.477727321,0.741483641,0.091977567,-0.141337314,-0.066164002,0.242221446,-0.24688963
-0.022078906,1.367489361,0.117212257,-3.895284351,1.245416426,1.499122159,0.202104104,-0.59841108,-1.256496621,-3.348072485,1.333776683,1.643368018,0.170037112,0.391099776,0.404861422
0.185881148,0.873785144,0.006013733,2.82062384,-1.98763173,-2.085329573,-1.892344138,2.788947064,-1.385857536,2.792474868,-1.803791496,-2.091473801,0.00805113,0.140021282,-0.170116517
-0.150987064,1.160765812,0.676332357,3.934278898,5.458176434,-2.193839343,-0.962878879,-2.858186773,-1.434212203,4.754514938,5.287533374,-2.115736281,0.115220839,0.40972376,0.573524005
-0.110267146,1.016870015,-0.244746676,2.593523271,-1.48066005,-0.3480915,0.480966232,-0.720783188,-1.471135508,2.584188926,-1.197675635,-0.328858461,-0.207579363,0.091851267,0.023438068
-0.030052674,0.8029044,0.112105033,1.519486708,-1.102698395,-0.550568972,-2.16210583,2.906064148,-1.347172865,1.628880552,-1.028953229,-0.499975708,-0.414478875,-0.019158082,-0.450181011
-0.027728811,1.561086556,0.117008521,0.074723136,-1.130640289,0.311171147,-2.590784554,-0.475464723,-1.223544927,-0.040748141,-1.003214217,0.273753606,0.228058272,0.602493751,0.413825704
0.265085028,1.141979755,-0.361374787,3.150074291,-2.438682345,-0.222067299,1.595509391,-2.703972533,-1.260114146,3.076180071,-2.366606799,-0.316384745,0.368631414,0.001150762,-0.99774363
-0.146916994,0.693180857,-0.151357706,-3.631980923,0.526612069,0.989461514,2.140158509,-2.709439125,-1.117859199,-3.907231477,1.533455119,1.03474982,0.108468474,-0.098585855,-0.438725026
-0.46871096,0.46185452,0.329474226,-0.926277996,0.448879874,-0.120413879,-0.328352075,-2.854227771,-1.008538565,-0.883003873,0.267959556,-0.130613189,-0.222044438,-0.263405294,0.045919626
-0.424719336,0.694771605,0.093971849,-1.487590401,1.558554472,1.883146912,0.154694895,-2.650671968,-1.094904282,-1.531320972,1.632440607,1.966169206,-0.161331579,-0.331291399,-0.197963162
0.168010736,1.395873525,1.038166343,-1.290150281,0.497741718,0.408892708,3.107556739,-2.705940576,-1.082966586,-1.38132661,0.543041159,0.53269175,-0.04831353,1.056857635,1.054434294
0.24873408,1.611008159,0.749504979,0.666622385,-0.48295949,1.414042018,-2.631459816,-0.489307165,-1.211388956,-1.243919638,1.333650784,1.417160622,0.502149098,0.544275469,0.924031936
-0.053391383,0.51328789,-0.18156901,2.865543561,-2.429912284,0.447337513,0.996864147,-2.812497267,-1.367107854,2.574028675,-2.376573147,0.483116449,0.0314534,-0.067141204,-0.735211498
0.046778375,0.863955919,0.060953441,-0.474797819,-1.491155783,2.743237177,2.166379681,2.471645985,-1.296188554,-0.237779748,-1.36047783,2.80906109,-0.116422979,0.036476331,-0.166619166
0.195828407,1.361825423,0.060204361,0.468307452,-0.795105472,-0.367729829,-0.36398728,-0.543757856,-1.283992904,0.415454285,-0.713945586,-0.300069854,0.669569503,0.349257052,0.280577257
-0.332847552,1.985206278,-0.062667892,-1.646891028,2.419101635,3.616698396,2.916009747,2.265519376,-1.34243467,-1.897524488,2.190975901,3.553694924,-0.526590942,1.153428955,-0.127018043
-0.152177028,0.913110665,-0.019127163,2.6066834,-1.616319959,0.262968003,2.725387541,2.155111823,-1.438313791,1.654945812,-2.052023926,0.295614857,-0.461255691,-0.034755675,-0.276765407
-0.222072633,0.777434658,0.023241711,1.222496969,-1.947013367,-0.757225759,2.469789345,-0.832533186,-1.402821553,1.189442053,-1.918804936,-0.94999616,-0.081556372,-0.346612272,0.207937884
-0.098618332,0.271218344,-0.212368867,0.482972175,-0.346909938,-0.041967152,-1.88503792,2.691163438,-1.081756571,0.549376753,-0.126740082,-0.223329891,-0.25354405,-0.597247231,-0.677332187
-0.103117759,0.718265579,0.020039091,1.579880397,-2.068640811,-0.134453889,0.061752362,-1.873446615,-1.410792617,1.686906744,-2.420620739,-0.211628165,0.221689805,-0.256976418,-0.053718306
0.301245359,1.397922127,0.260445854,-3.063213902,0.268128433,0.438854434,2.518650691,-1.10975985,-1.379119719,-3.142167072,-0.030580884,0.452729878,0.44286334,0.598996309,0.487155566
-0.248615006,1.36081073,0.245763351,-0.008448126,-0.995098994,0.401770399,1.829105866,-0.170380122,-1.215107452,-0.063622466,-0.840317603,0.959359313,0.15135677,0.45869593,0.456953428
0.009990608,1.541969341,0.033138311,1.722048769,-0.98663903,-0.329476504,-3.132996737,-2.702344958,-1.514424666,2.348985633,-4.0696519,-0.028056523,0.299314203,0.469954454,-0.468996102
1.270457247,1.684788195,-0.414535865,-2.893461718,0.464559331,0.259581886,-0.407829096,-0.637731444,-1.468587745,-4.247868838,-0.767776247,0.257015522,0.191384031,0.795224554,0.98478147
-0.181094578,1.182921813,0.135787688,0.21660068,-1.217499432,-0.151230686,-0.98286089,-0.906192014,-1.260335904,-0.271522551,-1.473334816,-0.186693345,0.283484554,0.294145713,0.435466568
0.074704697,0.896593752,0.002029614,1.852417686,-1.604793001,-0.495768821,0.859718592,-2.206807861,-1.434560665,1.75909571,-1.917119664,-0.591238358,0.248076101,-0.079142741,-0.104554081
-0.365989649,1.766715998,0.212732572,-3.394489065,-0.895237924,0.650758461,2.484103712,1.809398723,-1.544175682,-3.896002465,-0.674118391,0.798604458,-0.792070149,0.715013749,-0.58600417
-0.199966318,0.264150373,-0.403700351,-3.938628971,2.76048553,0.252970994,2.530002586,-2.883875092,-1.021736741,-3.625506704,2.492871742,0.384563441,-0.002835067,-0.460500267,-0.82202425
0.076989938,0.186863738,-0.782195959,-1.341268625,0.701489242,0.243820233,-0.188625671,-2.820085569,-0.586941722,0.347115978,-0.156024616,2.152398383,0.099086419,-0.368949725,0.018657519
-0.247600238,0.204144394,-0.149764166,-3.384262876,2.634711511,0.54418703,2.94725047,2.282423935,-1.132238136,-3.441673779,2.612428292,-0.409495143,-0.589833724,-0.519810628,-0.540190871
-0.13477887,0.514467441,-0.271107179,-1.104473698,1.225333461,1.296561233,-1.566139355,2.550207101,-1.238355159,-1.033489934,1.196842891,1.401759783,-0.234392069,-0.122425149,-0.629174939
-0.093785102,0.984962739,0.015357573,-0.014479081,-0.005218528,0.005673726,-2.552248619,-1.74323038,-1.443837328,-0.004168288,0.006775282,-0.002062392,-0.00430996,-0.004027685,0.004168268
-0.104816461,0.849278939,-0.077756629,2.117353477,-1.349349767,-0.076918093,2.582436613,-0.807635887,-1.529892967,2.075369696,-1.045979031,0.054155232,0.106040072,-0.200937256,-0.030707076
-0.584465213,1.689777481,-0.186293435,-1.620619371,-0.386818912,1.954678052,2.177888949,1.447049471,-1.511875751,-1.610206411,-0.269672939,1.913915071,-0.347511858,0.386245728,-0.235218844
-0.113869933,0.793429581,0.106808782,0.071227151,-0.710279483,-0.119349426,2.721319809,2.112815405,-1.197757682,0.161695427,-0.795749617,-0.116457031,-0.887650156,-0.079196679,-0.279526844
0.174108125,1.45897305,0.128646267,-2.795528987,-0.548462133,4.058531217,-2.894531401,2.680200395,-1.310221928,-3.006924816,-1.359054966,4.161148558,0.041332721,0.503858304,0.324450971
-0.704692465,1.673744312,1.781618294,1.04874347,-0.774764595,-0.630114616,3.092940029,-2.753017401,-1.185830859,1.211542652,-0.67478709,-0.628510209,-0.45372638,0.193514399,1.138740079
-0.036371805,0.617024321,1.243242206,-1.471289586,2.747960697,1.987317051,2.769489234,-2.768238448,-0.779550881,-1.288818252,2.884794628,1.899314003,0.120591318,0.045122228,0.557010116
0.334445355,1.371464976,-0.055351739,-4.260587817,1.625086312,0.748481293,-3.024452146,-1.120076881,-1.486773372,-1.925407539,1.740994441,1.163279187,0.909440791,0.215333912,-0.02127072
-0.87742474,0.849607876,-0.020088558,0.542831997,3.210126765,0.565328278,0.271556996,-2.857007383,-1.087259449,0.401541844,3.331772934,0.503357762,-0.256140886,-0.509859266,-0.937939345
0.328860454,1.30218194,-0.814121928,-3.200881317,-0.377111414,1.153732956,-0.010267026,-2.745393545,-1.41645776,-3.154200915,-0.583692783,1.126488233,0.144592875,0.386674167,-0.629215761
-0.264383929,0.812970796,-0.156000481,2.979136518,-3.223805095,-0.038107014,0.609044382,-0.890059736,-1.466964304,-0.028000775,-2.608225668,-0.012168513,-0.074737388,0.25434412,0.139229825
-0.660374726,0.881088591,0.172783726,0.52912706,2.609759622,0.48648726,0.266164432,1.28925027,-1.292949514,0.699297126,1.483076637,0.498981455,-0.55865786,0.816040702,0.25098341
-0.292341146,1.232255465,1.060710206,1.055096257,-1.085134899,0.860976222,-0.078905857,-2.156807244,-1.386081346,0.675266289,-1.017440376,1.066855101,-0.30884344,0.184941211,0.346630502
-0.446831964,0.818412085,0.022182439,1.901195724,-0.026762873,-1.335613745,3.068736048,-0.546373515,-1.264506813,1.238849297,-0.075283296,-1.412079814,-0.280102107,-0.034333336,-0.146793677
-0.24128167,1.458829772,0.840589929,0.464104575,-2.135926106,1.463579534,-1.351766096,1.642257931,-1.260998578,0.627373833,-1.378731661,1.520097077,0.196884781,0.698755207,0.335838417
-0.580017613,1.091193255,-0.087960846,3.178391018,-3.504909987,0.163454263,-1.503762836,1.708496561,-1.508339485,3.605917452,-3.985810356,0.539530784,-0.159795979,0.311399393,0.033780977
0.554536767,-0.132148917,-0.050034239,1.445335354,1.828429472,0.550755128,2.970149619,-1.55640788,-0.397643604,1.442045583,1.832558969,0.135627441,0.392492605,-0.800725144,-0.594289825
0.237716238,1.919423024,0.161828303,-0.057368647,0.064993565,-0.620595972,-2.862073091,-0.187895172,-1.561577474,0.171617852,-1.121870357,-0.526284946,0.452114543,0.523744686,0.5446503
-0.396646099,0.924517439,-0.542858279,-0.344083749,0.552437366,0.768884101,-0.977965713,1.015480755,-1.006946561,0.230751659,0.351797621,0.723130958,-0.253987256,0.360311625,0.182689221
-0.22877754,1.621844185,-0.503003096,-0.234198292,1.097404992,0.820485069,-0.132695243,2.724855887,-1.480515302,-0.537574566,1.491158099,0.782592707,-0.43765066,0.629584696,0.053406005
0.54461755,1.562296354,-0.288285106,0.142299585,0.547599067,-0.595652464,-2.919494441,0.906179765,-1.387764467,0.612605043,-0.421024748,-0.371920039,0.572316225,0.270692767,-0.387995102
0.269792141,0.392711138,-0.433985545,-0.334702683,-0.289461267,0.500654636,1.579301548,-1.488057077,-0.61165343,0.179228694,-0.589376558,0.324309988,0.365114702,-0.324758736,-0.848677429
-0.113060831,0.635056738,-0.164644902,2.251483188,-0.247922842,0.052325259,2.22388435,-1.56031862,-0.908128314,2.426303515,-0.646640498,0.102405153,-0.338853423,-0.412874384,-1.075782829
-0.040511065,0.56902083,0.101152276,-2.220526416,-1.056305721,1.325929805,1.991285608,-0.09887254,-0.684888291,-2.355716833,-1.155907828,1.181671837,-0.500614151,0.345996037,0.407977245
0.323700228,1.51197343,0.665823064,0.839086434,-0.110314178,0.127957558,-0.703674045,-2.042270036,-1.171607552,0.861233042,-0.663260552,0.388938056,0.727700535,0.028424967,-0.025991588
0.190096768,1.186366164,0.567347321,2.531924515,-1.287199325,-0.561937184,0.514478734,0.458120032,-1.472450356,3.250918536,-1.077978435,-0.254633465,0.549536728,0.123104036,0.518709147
0.155940735,1.347038153,-0.446613946,-1.737190913,-0.420769313,2.185126208,-2.372694313,2.654306742,-1.451127428,-1.910635035,-0.58242306,2.317122284,0.231801254,0.392979619,-0.103677504
-0.159836119,-0.10634039,-0.425383714,-0.455046811,-0.394465192,0.657119072,2.046850904,-1.709995936,-0.858245466,-0.602219835,-0.650908496,0.711779146,0.36762218,-0.02124785,0.118472067
-0.494710459,0.039339369,-0.381553332,-1.297539828,3.356383968,0.166294412,1.679308493,1.589866029,-1.133471704,-0.774340394,3.338293887,0.074645876,-0.638221139,-0.769548939,-0.195330908
0.091903333,0.77513635,0.050050188,1.349196568,-2.649308985,0.791426293,-0.551442281,2.957134978,-1.532863755,0.353087658,-2.454860252,0.514259031,0.215952025,0.136143395,0.498624433
-0.182448139,0.831844389,-0.436495629,-0.805749159,-2.957077167,-0.20422338,-0.485635383,-1.203455756,-1.30531132,-0.299452764,-2.80385318,0.103424602,-0.501740486,0.623462589,0.110893285
0.170382336,1.861872838,0.516081559,-0.59863879,2.676251537,1.746625102,-1.001552885,-1.248925526,-1.245045341,-1.216215815,1.927984531,2.028005247,0.360083481,0.564939461,0.209759504
0.513049236,1.02315462,0.440352667,2.151987588,1.67001877,0.437289755,3.108252862,2.433377847,-1.504103484,2.184237066,2.480279064,0.714621914,0.204690766,0.091876313,-0.439660981
-0.233375804,0.782564417,-1.36463019,-1.525683553,-0.286678606,-1.941131265,-1.571843595,-0.767905774,-1.401797175,-2.183728718,-0.045765264,-2.196130299,-0.428462631,-0.345084297,-1.134636269
-0.795146441,0.384717593,-0.403369951,4.095432169,0.339441972,-1.074412526,1.838921123,-0.235824192,-0.961715436,3.93950906,0.681872995,-0.916276989,-0.129630272,-0.567287501,-0.263278622
-0.53238999,0.824318609,0.518783936,0.258734253,0.195997665,0.869624076,0.968813643,-2.715792975,-1.180466356,0.359680206,1.159373261,0.639550644,-0.244977327,0.030525681,-0.057771355
-0.114579711,1.586343287,0.090469915,-0.994978096,0.829800514,0.677090335,1.447075898,-0.884013069,-1.341286943,-1.226158495,0.873753343,0.467971821,0.001737681,0.304684187,-0.263879078
-0.579346523,-0.736218935,-1.13615644,-1.195064634,-0.817788466,0.599022105,0.959819939,-2.94512357,-1.046402951,-1.078587029,-0.687465766,0.867752292,-0.065993134,-0.489051587,-0.889723452
0.119822612,0.966296446,-0.020651612,-0.921237588,0.836356629,-0.790725645,0.453031892,-1.925462781,-1.475404941,-0.457107327,0.189163184,-0.69701403,-0.324366606,-0.401004242,-0.626424571
0.05582129,1.364260116,-0.14334079,0.004108687,-2.959860239,-0.948989099,0.539110692,-0.938328117,-1.453337894,-0.254868278,-3.154865631,-1.047399752,0.600640065,1.317456454,0.632160019
-0.509437698,1.385691137,0.764442891,-0.270819579,0.62247772,1.832637068,2.493049586,-1.141066237,-1.548129212,-1.518097404,0.880428946,2.139679289,-0.780885916,-0.029351019,0.83467301
0.273734095,1.170840182,0.40237524,0.808856648,-1.231634484,-0.336671824,2.226756082,2.141196127,-1.098682217,1.383653101,-1.74671428,0.12427047,0.123292649,-0.383285114,0.465876707
0.605247705,0.724799346,-0.284011779,-0.914642955,0.739325156,-0.16543842,0.641938399,2.799995343,-1.159578624,-0.35008756,-0.016854906,0.236172473,0.501881357,0.113190581,-0.637573392
-0.239395351,1.737484782,0.825288075,-2.545937201,1.483944799,0.875697423,-2.96442216,-1.198399098,-1.169048318,-3.254632235,1.80448933,0.789556404,-0.081937751,0.680059394,1.072238108
0.390574578,0.668936658,-0.750213622,-2.718225938,0.762421929,0.576044418,0.605340162,-0.746664033,-1.410716907,-2.157957755,0.430248248,0.589864917,0.534451471,0.586716826,0.364842813
-0.0741657,0.226056519,0.193958111,1.485039299,-0.294942659,0.464804264,0.092200561,2.758949128,-1.158084103,2.25314515,-0.29916018,0.591283836,-0.419371699,-0.728050217,-0.744432148
-0.096195476,0.404978557,-0.093700522,0.517155972,1.412388901,-0.029783394,1.331992044,-0.917381533,-1.395828253,0.752010054,1.359609361,-0.144612388,-0.157823188,-0.687157074,-0.693300415
0.308306417,1.448652077,0.996441143,1.092272863,-0.055123123,-0.742032984,0.879521828,1.88132444,-1.409551901,0.664967165,0.63887759,-0.717691575,-0.015583067,0.131624184,0.751274365
0.012595477,1.084315961,0.322765083,0.355536365,-1.257728549,-0.095239469,-0.512351085,-0.830210284,-1.432707415,-0.542798292,-0.328554534,-0.102103328,0.492454916,-0.270028065,0.774963431
-0.306277783,1.969628004,0.895688685,2.921131247,0.572069373,-0.371258304,-1.896705862,-1.88583183,-1.364667946,2.148789073,0.913097078,-0.47612678,-0.066813912,0.685754894,0.293407373
0.002867584,0.772037843,0.283167485,1.181281042,1.05477102,-1.411881936,0.153963187,1.474841807,-1.361389391,1.22086809,1.496689062,-1.172398669,0.021791967,0.171883243,0.057327816
-0.264449849,0.212720609,0.475994527,-2.507832311,1.554629979,1.218824674,2.378693886,-2.285952743,-1.000533132,-2.327471043,1.859521862,0.961591578,-0.035544199,-0.341326942,0.414017181
-0.482051919,0.065724084,-0.627635391,-0.62518949,2.414325251,-0.686183055,-2.412931002,-2.247745779,-1.017752565,-0.716430166,1.139015348,-1.031946214,-0.196972225,-1.016271882,-0.500638751
0.778171666,1.953132782,1.005012528,2.120507602,-3.386633301,-0.260765313,-0.818102705,1.033611671,-1.324155063,2.451282094,-3.886353962,-0.133325386,0.585368534,-0.047170436,0.381834027
0.777352235,0.46114708,-0.26983962,0.217078561,-1.178265885,-0.166667053,1.323995535,1.489004157,-1.276968829,0.143596059,-0.912443739,-0.198267646,0.652083044,-0.033433745,-0.596297111
0.490421406,1.03152543,-0.208610305,-2.875050718,0.072972099,1.698725702,-2.66517297,-0.546555425,-1.545229128,-2.418133182,1.283332233,1.476601389,0.831507751,0.709950344,0.103518735
0.43485143,1.218081329,-0.017728668,2.285394598,-1.12444757,-0.226737055,3.132152667,-1.644665474,-1.561703245,1.49398287,-0.634187735,-0.445802775,0.310745074,0.173144219,0.225722459
-0.216637815,1.47209566,-0.569106472,0.583764589,-0.450825713,-1.575111317,-1.686372821,2.194019216,-1.543917491,0.676055234,0.253644952,-1.932713696,-0.074924181,0.464900615,0.496256628
-0.347389286,0.920728709,-0.608199843,2.476411204,-3.765937891,-0.08586656,0.678168431,0.356513689,-1.39916257,1.912561489,-4.008605311,0.077915894,-0.126748227,-0.364545388,-0.437549413
0.211435047,1.395770229,0.36827127,0.087533461,1.541125709,-0.947336845,-1.108283472,2.712173288,-1.415303025,-0.140976642,0.473739867,-0.924540541,-0.412755266,-0.258216017,-0.301894908
-0.12245705,1.308281031,0.601998962,2.953743594,0.519836854,-0.669485556,-2.323546632,1.75893993,-1.11998199,2.61981641,0.676110771,-0.966453451,-0.155822987,0.488143231,-0.052624606
0.155739875,1.292890275,-0.039729573,0.849264667,0.824237192,0.201163403,-0.180717132,-1.612158924,-1.221312988,0.237429112,1.217493077,0.319855226,0.046384634,0.260370332,-0.036836565
-0.606709031,1.46049426,-0.223876633,-0.926780362,-1.061758991,0.508327557,1.297288754,-0.832090168,-1.54967452,-0.955092854,-0.883167268,0.378914489,-0.018353882,0.415497822,0.461852637
0.270398789,0.946272083,0.133946281,0.78490764,-0.721900383,-1.183110047,2.2369901,1.270230654,-1.229605986,0.513314209,-0.136177063,-1.004260652,-0.321764844,0.315785605,0.27219334
-0.115896185,0.244106953,-1.391534661,-5.589012358,1.228463637,0.611300557,0.632700266,-0.12007213,-0.855231376,-5.364277609,0.175394351,0.649583365,-0.191577652,-0.802035369,-0.736738652
-0.047907262,2.044812839,0.791339407,-3.423619051,4.028855291,0.40498457,-1.066594683,2.38267115,-1.412096622,-3.369954598,4.051229678,0.678141121,-0.128617659,1.105325389,0.6062501
0.381047363,0.902401005,0.33399858,-0.48982838,2.750963392,0.870578933,1.722916164,2.496362703,-1.295904258,-0.315904652,1.920142458,1.183059343,0.259993751,-0.464057296,-0.459306373
-0.090404397,0.527130262,-1.129565713,-1.088166431,0.165661146,0.05600068,-2.693176342,-1.103925656,-1.141903729,-1.146247066,-0.587729907,0.152585341,0.494311408,0.215257597,-0.728228246
0.335062203,0.217339487,-0.00612244,3.826843327,-1.043028046,0.218711669,1.42671035,0.667452137,-1.385838955,4.283943969,-1.931096151,0.376866343,-0.04009483,-0.205535568,-0.589188342
0.083564707,1.07198099,0.516778448,-0.90149467,0.088430721,1.49840485,-1.485200136,-0.500559789,-0.266637284,-1.02544458,0.608526007,1.404875338,0.168741704,0.595806792,0.871109838
0.008630027,0.264190774,-0.393212187,1.940062688,0.508752742,-0.548376293,1.119443783,-2.075047076,-1.063396427,2.236889401,1.274551951,-0.660169227,0.025258254,-0.701013217,-0.281116961
-0.205414669,1.811498249,0.196039317,-2.557850223,0.453499301,1.16733732,-1.414255809,-2.364356238,-1.123450576,-2.057133627,0.504910572,1.310183543,0.297350238,1.009028022,-0.043651933
-0.014625312,1.141154791,0.143209493,-3.386154427,0.541842318,0.792336217,-2.177255888,-2.447857901,-1.381197869,-2.129980208,1.074109958,0.474056664,-0.133918746,0.759332576,0.465928899
0.514487322,0.570218129,0.470197744,1.876179679,1.581822172,0.640630107,-1.680252646,-1.062625594,-1.334463123,1.97807192,1.161949991,0.6672323,0.074479495,-0.231780832,0.313749073
-0.034534503,-0.620607341,-0.223049665,-0.394411823,0.605464002,1.772861375,-2.475442387,2.373086817,-1.103106687,-0.504990879,0.384962351,1.585223199,-0.014762283,-1.396334506,-0.708323799
0.136959888,0.258076817,0.120548541,-0.859436674,2.704407372,2.63659722,1.110762025,-0.566572992,-1.037631956,0.073354096,1.963067112,2.89637233,0.749488829,0.002473618,-0.025252218
-0.429137818,1.198357003,0.374319475,0.598028075,0.985926354,1.356525837,1.801019454,-2.351060994,-1.029668517,1.222012943,1.024833076,1.372965654,-0.143604825,-0.145587981,-0.19343584
0.320305401,1.09353376,0.155062882,1.829713348,-1.413798501,1.118601079,-2.146490979,1.707378916,-1.212284592,1.375182647,-1.453244009,1.03337142,0.179285038,-0.13850058,-0.365621366
0.718080413,1.170330809,-0.269439199,-0.528343903,2.608404018,0.838175632,1.580285906,-0.326797374,-0.94953167,-0.7450383,1.619597093,0.755344659,0.659738309,0.02106734,-0.05303704
-0.254089927,1.317229877,-0.597866832,-0.016434844,-0.608661694,-0.491159051,2.066416332,0.099573379,-1.412153917,-0.389733018,0.029119436,-0.437545195,-0.309393664,0.342291505,-0.189273564
0.149745873,0.328255677,-0.679819266,-6.023863124,1.324852482,0.847068539,2.583450959,1.652582376,-0.886232962,-5.201240516,1.362386032,0.813247883,-0.009668273,-0.094889913,0.254577094
0.282109765,0.340399037,-0.523409192,1.757385141,-1.715164003,-0.534046036,-1.362760233,-1.892625341,-1.218780083,1.89335103,-1.805267056,-0.368713373,-0.061384613,-0.710998959,-0.55206777
0.01830783,1.382027262,0.607149324,2.034917931,-1.043523573,0.368886304,2.981055384,-0.730718519,-1.209871,1.838729449,-0.410268181,0.292046759,0.336512597,0.589322511,-0.242013362
0.656594731,1.07461163,-0.613290108,2.247790932,0.995556495,-0.074113376,1.767708459,-1.20188438,-1.329301932,2.640654835,0.757918398,-0.112549733,0.691183086,-0.4794442,-0.069075387
0.075785332,-0.700191175,-0.318169116,-1.304424144,0.664653828,-1.607979717,-2.727268207,0.190834053,-0.57579273,-1.340697482,0.693240541,-1.291266539,-0.687629124,-1.472711851,-0.594853865
-0.370769298,1.743393299,0.543289635,-0.266279806,-0.277525033,-0.319116996,1.888593695,-0.947245759,-1.197337218,-0.807451132,-0.14287289,-0.410495259,-0.437167335,0.602352916,0.632099515
0.162619801,0.811914601,-0.150926316,1.71503667,1.304358385,0.044525509,-1.27696597,0.058121449,-1.19098834,2.257689717,1.006435174,0.037236738,0.151630302,0.141427,-0.714029999
-0.046596203,0.537548206,0.537646027,-2.273512579,4.028698764,0.239425002,1.690147104,-7.6295e-05,-0.951225846,-2.292669136,3.497339385,0.038336209,0.497470543,-0.656729958,-0.07139128
-0.370056366,0.73471083,-0.051567195,1.363537399,0.54710225,0.423630867,2.704172385,-1.983826405,-1.333878417,1.492639296,0.031838409,0.345583832,-0.360615372,-0.324950128,-0.783392176
-0.909402541,0.509058767,0.780892168,-1.689930064,1.948346717,0.933492133,-1.312809824,-3.005226542,-1.088341949,-1.600387797,1.670943758,0.874426931,-0.793333232,-0.330579365,-0.115880417
-0.325745037,0.620458438,0.691569942,-0.128686575,-0.160772463,-0.648650644,1.683893557,-1.791829433,-1.391186647,-0.600657328,-0.402898777,-0.565358746,-0.455090131,-0.27561007,-0.274878002
-0.643745603,0.543219034,-0.187640485,-1.986697804,-0.078283611,1.519535232,-2.984727292,-1.704719592,-0.660150143,-3.093910081,1.311475931,1.1593119,-0.204436182,-0.124282257,0.135585925
-0.767044648,1.068803244,0.053716862,-0.602937689,-1.711523289,-0.788214167,-0.745803466,0.71980225,-1.402332057,-0.525272593,-0.983399651,-0.832815926,-0.587433341,0.194793534,-0.017988527
0.662401402,1.132031792,0.537686401,1.930474478,1.448578919,-0.591310746,-0.682731551,-2.56539471,-0.935248182,1.811051885,0.744537039,-0.750205724,0.089132371,-0.190616658,0.039631371
-0.010573002,1.131649875,0.401122927,-1.031769788,-1.183996183,-0.372398729,-2.379039624,-3.024825589,-1.193224132,-1.613562805,-0.457705728,-0.532909537,0.154513997,-0.103349577,-0.453771932
-0.041311786,1.862307243,0.727729861,1.146047902,-2.214970137,-0.129715079,0.587442793,-1.871589905,-1.478954658,1.231698448,-0.817173527,0.110127325,0.134936571,0.317989002,0.19008307
-0.141517321,0.291386042,-0.079571634,2.176996845,0.982140591,0.614734011,2.681609746,0.78490036,-1.454205488,2.046520857,0.680012291,0.64555184,0.135376988,-0.931218483,-0.436868204
-0.05205387,1.346516999,-0.00248677,2.779602243,-1.638451026,0.108776823,-1.39195181,1.016442153,-1.474087263,1.721737452,-1.790366172,0.270806698,0.244428194,0.240438931,0.246841603
0.272479042,1.433246298,0.60418944,0.640506192,3.027646216,-0.291697823,1.378267023,-1.485609153,-1.197756196,-0.08201281,1.81389493,-0.731621056,0.265127864,-0.424948733,0.016090736
0.491944225,0.653429535,0.617203313,0.897315479,0.271021854,-0.892144083,-0.577617924,-1.290570573,-1.130643773,0.729734901,0.504624563,-0.966977911,0.548958604,0.181031687,0.657960174
0.35380173,0.983670358,0.45275326,-0.256633784,-1.249543255,1.009003051,-2.179042619,1.80848604,-1.12087345,-0.43793983,-1.346163531,0.839220386,0.349217414,0.357607217,0.622493689
0.040806928,0.204593933,-0.382493493,1.222821517,0.112074964,-2.372629326,-0.790582987,-1.454710215,-1.332158489,1.894658063,-0.453538153,-2.286218182,0.196756143,-0.65299881,-0.238686935
0.906489562,1.707569564,0.39676599,1.712006086,-1.91748955,0.363586905,-0.510082962,0.089968736,-1.315331024,2.0986932,-1.604325114,0.225220188,0.717032989,0.608782195,0.809842482
0.498395895,0.745755335,0.387009217,-0.91479057,1.553735276,0.790278554,2.808188814,-2.619738761,-0.869573636,-1.016694554,1.176716394,0.534818446,0.658239271,0.3469813,-0.248401183
0.145373145,-0.019665033,0.359078786,4.071580502,-2.434393295,0.41812957,-1.760051549,-2.898687717,-0.642817471,4.207782794,-2.551876785,0.437747394,0.45647671,-0.435624898,0.491057148
-0.904018495,1.228133358,0.116555203,-5.486462553,2.194674669,0.028338361,-0.261525502,-1.924535806,-1.538972154,-5.02804038,1.403927824,0.108165046,-0.776496674,0.105657132,-0.782869861
-0.283357861,0.178465857,0.475318245,1.078452053,2.455047703,-1.444583709,1.988275073,2.566012158,-1.546567557,0.688544301,1.721294579,-1.288488397,-0.345960334,-0.506871829,-0.536534791
-0.335933967,1.517749326,0.517810236,0.293981552,-0.139119349,-0.501840022,-1.62526631,1.958601526,-1.021421285,0.644634406,-0.732236413,-0.587144433,-0.239908601,0.59249018,-0.163287269
-0.713891734,0.610010217,0.075340194,0.584720774,1.555808425,-2.224881921,0.473113993,0.390558685,-0.968520434,1.280728136,1.550570445,-2.322700604,-0.566493674,0.510023867,0.029288296
-0.068975603,0.585880564,0.42711592,2.333530286,-1.14652903,-0.207667643,-1.101053974,-1.607990514,-1.409709689,3.064216864,-0.972071396,-0.380988629,0.026112989,-0.849286689,-0.304996717
-0.057380204,0.720890565,0.732840432,-2.564054335,-2.071052333,0.248911557,0.483145175,-1.024826562,-0.889749298,-1.843731729,-1.3498411,0.417087244,0.31725984,0.462508554,0.507255643
0.692643299,1.61684455,1.051465752,-1.064942462,-0.225866553,0.07676572,2.240359265,0.708888752,-1.14291209,-0.8714365,-0.884077628,-0.279870691,0.561361824,0.205870158,0.872719209
-0.149387033,1.920548342,1.055519146,2.099831478,-1.009853053,1.269264276,1.285482811,-2.957927714,-1.242198627,1.592497215,-1.750845223,0.699575949,0.107966816,0.605276688,0.554293108
0.044201108,1.855410534,0.401907098,-0.73621887,-1.429148184,1.59634528,-0.971975324,0.622088147,-1.251591073,-1.249871403,-1.247339221,1.770214178,0.256943342,0.610443087,0.300769467
0.40178177,1.282048018,0.701552454,1.423068377,-0.844073943,-0.770267013,-2.423507357,3.023101715,-1.567569416,0.752209671,-0.750467704,-0.849455957,0.206422665,0.698801011,1.396035051
0.142849869,1.572841669,-0.396717455,1.693239927,0.689495413,-0.048126038,2.801395896,-2.407931576,-1.304887152,1.608105594,0.038562541,-0.091163461,0.145806227,0.389691434,-0.225477703
-0.218320438,1.033283609,0.368896477,-0.338453906,-1.803713528,-0.701605507,-1.756410328,-1.17455965,-1.37611785,-0.622379152,-1.132400805,-1.051962278,0.153277041,-0.362311308,1.035690129
0.562574126,0.546232685,0.496618506,-1.37870346,-1.020055925,-0.043457788,1.005236622,-1.296649057,-1.320018188,-0.929333309,-1.785311811,-0.037719044,0.38593976,-0.505974077,0.418501875
0.183568846,2.578312028,1.129254185,1.737813955,-0.0460928,-0.200649147,0.871707331,1.038507755,-1.419126908,1.215465825,-0.186467421,-0.265026495,-0.128491247,1.605215139,0.89809371
-0.079904347,2.146712314,0.38400084,3.281079432,0.291739808,-0.930377553,-0.430119761,-1.394022624,-1.493583378,3.303719108,0.32053147,-0.923472442,-0.490731466,0.764326124,0.239797413
0.20815527,0.432950864,0.191138181,-0.605505441,1.09503336,0.464184368,-0.660889399,-0.786496431,-1.15925597,-0.690965738,0.453034616,0.638860849,-0.085512733,0.211092728,0.109286393
-0.041784641,0.273630538,-0.823449593,-0.791400939,1.52418444,0.265716223,-1.477342731,-0.20181243,-1.350578397,-0.927935092,0.914194444,0.427724931,0.309037047,-0.669994367,-0.191681798
-0.733235596,0.981114708,-0.070247684,-0.880517212,-0.18102437,-0.281269919,2.655917339,-2.709900571,-1.337028563,-0.879506989,-0.12031991,-0.414715029,-0.616134742,-0.051911936,-1.301795716
-0.430424793,1.085077822,-0.353271366,-3.496112562,0.250698563,-0.01293069,-3.011395915,-1.298482057,-1.561105785,-3.818036057,-0.21322492,-0.051316294,-0.372302898,-0.154797716,0.020651286
0.438307929,2.212420402,0.922573889,-1.60462056,2.721648988,-1.267594419,1.047357425,-1.732638435,-1.132257867,-0.853242259,2.672806091,-0.865389189,0.067925031,0.740459562,0.249614075
-0.245140996,0.868779215,-0.841494975,1.527065991,-2.419160591,0.750874835,1.975864204,1.434086664,-0.998565018,2.04996395,-2.412170637,0.495974017,-0.290711594,0.945386548,-1.066134674
-0.278227203,1.296128288,0.30161319,3.434347829,-2.023256555,0.632876406,2.368950379,-0.810999643,-1.505356742,3.701742212,-1.254661208,0.744782054,0.189318124,-0.017864468,-0.068385533
-0.279415004,0.791993962,-0.077024719,-0.230902456,-0.917358396,-0.995691411,-2.967063995,-2.312214161,-1.527496269,-0.06495049,0.183916058,-1.432683911,0.040823584,0.088973421,0.133914308
0.733550822,1.287893843,0.101313112,2.274507574,-1.887322863,-0.0593093,0.32049677,-0.727549375,-1.235592648,2.111811462,-1.090572818,0.298517025,0.827339239,0.074407061,0.362591076
0.196554658,0.26472241,-0.508846031,0.677279529,0.304758954,-2.134416282,1.941430968,-0.296081205,-1.142633806,0.862574424,-0.036217457,-1.955027696,0.558297893,-0.688779192,0.030197087
0.286339211,1.004418659,-0.389669005,1.860206086,-0.965353963,-1.880568138,0.15212885,-2.872893106,-1.371391442,1.483217878,-0.132890193,-2.008358098,0.316323105,0.10521464,0.294014081
-0.222525317,0.391871158,-0.150022789,2.374755775,-2.795222302,-0.966556808,-0.172762937,-0.693213875,-0.981173194,1.980502831,-2.442405235,-0.944384777,0.048635999,-0.457897936,-1.029863534
-0.423571846,0.932732424,0.432932317,-1.000786681,-0.131921452,1.430676802,-3.085240512,-0.574416447,-1.397954654,-0.776196265,-0.299806501,1.570832313,0.257149297,0.395417709,0.009040083
-0.039314606,1.153994172,0.313148564,-0.831666846,-1.971213599,0.43500772,0.980671047,1.406029186,-1.145646395,-1.128340767,-1.277566202,0.325109528,0.092452482,0.9597657,0.268092042
0.434249319,1.026047942,0.338503356,0.659895681,2.387252926,1.811487179,2.044590605,2.798457045,-0.8014653,1.013691716,2.845831691,1.594010456,0.183191311,0.351908872,0.179757761
0.537854847,1.029468561,0.603235789,1.941526445,-1.481374127,-0.897120602,-0.402544398,-0.572045032,-1.04521318,1.348274704,-2.06792617,-0.870441401,0.77631678,0.360980921,0.681367223
0.002317646,-0.007655278,-0.00220155,-0.68908,1.425214297,-0.295225698,-0.533078035,1.162773045,-1.027050192,-0.339462766,2.394806019,-0.26099683,-0.325072586,-0.913018949,-0.235604513
0.353224286,0.94682244,-0.565597117,0.967494491,3.044844107,-0.011183094,-1.259661236,2.694863218,-1.471966846,0.861548267,3.210948209,-0.132288887,-0.140761375,-0.403152163,-0.066074337
0.35478011,0.431883587,0.358077501,2.745545523,-2.631060609,-0.15540071,1.072727978,-1.058153069,-1.276598633,2.516086246,-2.413287041,-0.322898664,0.037151836,-0.167593379,0.337210486
-0.183877922,0.554465801,0.231470008,3.795881463,-0.927818989,-1.068858148,2.325281414,-1.547570791,-1.172254682,3.238939644,-1.516653191,-1.129451492,-0.201840824,-0.171368479,-0.637700523
-0.678379712,0.616221146,0.673089767,2.281966572,1.326091705,-1.888825007,-2.706146688,-2.748504016,-1.342119658,2.86797415,1.5776097,-2.051160034,-0.953575292,-1.176815116,-0.433782599
-0.009387881,0.388349131,-0.593663825,-0.185046032,1.093489805,0.494696845,0.284865994,1.215160349,-1.421707395,0.433448926,0.471899407,0.598745512,-0.080367213,-1.006521475,-0.154086402
-0.204994974,1.670710082,0.946404848,-0.541847269,-2.536709136,0.957874661,2.92622631,-2.616717953,-1.281238176,-1.193159666,-0.783545678,0.61084143,0.125346461,0.800104775,0.891986731
-0.286409944,0.525474265,-0.296277128,0.272765717,-1.570876812,-0.962120848,0.88473268,-0.438538497,-1.030243555,0.838767392,-0.973828054,-0.890502652,-0.430725664,-0.310298369,-0.246616416
0.392061805,0.503544053,0.379917631,4.025681046,-3.522542686,0.471902114,-1.943579031,2.485518425,-1.366243361,3.890516545,-3.070235941,0.361318922,0.529377506,-0.289233978,-0.401372324
-0.193591162,0.308741648,-0.228832596,0.004556138,-1.87316447,-0.470363273,-0.386753748,1.390565448,-1.049993619,0.064031778,-1.820756735,-0.276741084,-0.286283539,-0.613156764,-0.833697518
-0.972044661,1.261637604,0.199678487,-5.575692363,4.509162249,2.044590118,3.003417471,-1.578722165,-1.047900881,-5.403000422,4.770876363,2.103509365,-1.055440566,0.306309514,-0.19544794
0.329524955,1.155672777,1.518183056,3.286252921,0.643647904,0.121311466,1.196823924,-2.522834513,-1.226309575,3.396194685,1.102468096,0.093212583,0.618607546,-0.292546899,0.410718251
-0.387065652,1.204488498,0.315734606,-3.312089524,0.393783165,-0.175578879,2.911902528,1.805290135,-1.258360573,-2.649402091,0.97994667,-0.060260274,-0.769724818,0.168323067,0.280699851
-0.298826939,-0.153043626,-0.180363407,3.095937194,-3.417843404,-0.17529199,-0.825168076,-0.787654337,-1.390759758,3.003629112,-3.154200369,-0.759672546,-0.794322059,-0.568261999,-0.199138776
0.207386716,1.540307228,0.539476553,2.478796917,-2.038651246,-1.748093711,0.428927196,-1.248926402,-1.333749873,2.710136802,-1.646433479,-1.984924375,-0.127986434,0.583222824,0.164037314
0.035694741,0.275202359,-1.809311713,-0.245880434,0.26351032,0.774562728,-1.0506987,-1.691431647,-1.265379478,0.302188934,-0.455072965,0.76789373,0.521778238,-0.114805712,-1.266068768
-0.259931135,1.898906848,0.806201978,-0.097695128,0.126758569,0.559502513,2.908053449,-1.278764963,-1.43804384,0.428803643,0.786340412,0.796199508,-0.224293258,1.062177837,0.293997628
-0.139572711,0.931664524,0.748471564,1.050072468,-0.826011478,0.341478985,2.710803201,-0.525108973,-0.5702898,1.289065741,-0.67911689,0.374184086,0.230556508,0.442120128,0.577146842
0.989069155,1.1829826,0.552935809,-2.365520667,0.21537108,-0.617785093,-2.217129154,2.989395018,-1.195064879,-2.264614281,-0.594383159,-0.158462083,0.651374359,0.677770822,0.732112558
0.037614165,0.924929393,-0.075148263,1.900772404,-1.708831477,-0.744515901,-2.162344373,-0.200328152,-1.348823578,1.891009894,-2.389696279,-0.643834597,-0.122181911,0.116844381,0.333009044
-0.328032075,0.801280605,-0.312084179,-3.738519633,0.427569791,1.099302763,-3.007689916,-2.493922355,-1.322632325,-4.104367162,-0.340410934,1.041971243,0.225263054,0.327468717,0.083047365
0.336261195,1.344179413,0.466844085,-0.215077677,0.591087011,1.302054901,-2.245962585,2.982533326,-1.532928972,-1.01864445,0.536792672,1.074012219,0.297162395,-0.053678639,0.243000422
-0.354259806,0.536124633,-0.800376124,-0.718533626,0.196210861,1.129825804,0.420747822,1.182458237,-0.79923011,-0.972707578,-0.55569373,1.185712198,-0.377217116,0.608917884,-0.678813632
0.083692851,1.253542863,0.063593723,0.820794592,1.247833374,0.988935677,-1.195208213,0.290010732,-1.517491602,1.508278047,1.22348311,1.05858229,0.176298687,-0.489134934,-0.609813522
0.204498626,2.032599197,0.285923909,-1.192689881,1.422707501,1.961683651,-0.015355246,1.214416724,-1.305571599,-2.066019179,1.313658677,1.737033154,-0.281049366,1.292112634,0.546416877
-0.204106473,0.633342783,-0.12753807,1.848597479,-3.804603209,1.066575374,-3.055202038,-1.790407229,-1.388039535,1.319978031,-2.65654029,0.997494185,0.227500071,0.468727915,-0.531416292
