loggingTime(txt),locationTimestamp_since1970(s),locationLatitude(WGS84),locationLongitude(WGS84),locationAltitude(m),locationSpeed(m/s),locationSpeedAccuracy(m/s),locationCourse(°),locationCourseAccuracy(°),locationVerticalAccuracy(m),locationHorizontalAccuracy(m),locationFloor(Z),accelerometerTimestamp_sinceReboot(s),accelerometerAccelerationX(G),accelerometerAccelerationY(G),accelerometerAccelerationZ(G),motionTimestamp_sinceReboot(s),motionYaw(rad),motionRoll(rad),motionPitch(rad),motionRotationRateX(rad/s),motionRotationRateY(rad/s),motionRotationRateZ(rad/s),motionUserAccelerationX(G),motionUserAccelerationY(G),motionUserAccelerationZ(G),motionAttitudeReferenceFrame(txt),motionQuaternionX(R),motionQuaternionY(R),motionQuaternionZ(R),motionQuaternionW(R),motionGravityX(G),motionGravityY(G),motionGravityZ(G),motionMagneticFieldX(µT),motionMagneticFieldY(µT),motionMagneticFieldZ(µT),motionHeading(°),motionMagneticFieldCalibrationAccuracy(Z),activityTimestamp_sinceReboot(s),activity(txt),activityActivityConfidence(Z),activityActivityStartDate(txt),pedometerStartDate(txt),pedometerNumberofSteps(N),pedometerAverageActivePace(s/m),pedometerCurrentPace(s/m),pedometerCurrentCadence(steps/s),pedometerDistance(m),pedometerFloorAscended(N),pedometerFloorDescended(N),pedometerEndDate(txt),altimeterTimestamp_sinceReboot(s),altimeterReset(bool),altimeterRelativeAltitude(m),altimeterPressure(kPa),batteryState(N),batteryLevel(R),label
2023-02-16T15:32:18.957-08:00,1676590338,34.06374647,-118.4510814,123.8981,0.94,1,316.7578086,29.82341312,6.859337601,16.04276538,-9999,48054.22393,0.395599365,-0.339859009,-0.879043579,48054.20267,0.78441727,0.560494701,0.366872332,0.000788887,-0.279668719,-0.02415086,-0.07476598,-0.015554637,-0.056890786,XArbitraryZVertical,-0.058033736,-0.31830492,-0.407777831,-0.853833347,0.496228963,-0.358697653,-0.790628135,0,0,0,-1,-1,48053.43699,unknown,2,2023-02-16T15:32:18.167-08:00,2023-02-14T17:43:35.488-08:00,10095,1.233032,0.6712879,1.921202,7487.105,17,23,2023-02-16T15:32:15.605-08:00,698283138.5,0,-26.43,100.663,1,0.71,0
2023-02-16T15:32:18.992-08:00,1676590338,34.06374647,-118.4510814,123.8981,0.94,1,316.7578086,29.82341312,6.859337601,16.04276538,-9999,48054.25772,0.477310181,-0.284698486,-0.847839355,48054.2327,0.788974528,0.551598079,0.367003801,-0.1972965,-0.224572062,0.248419613,-0.09112528,0.028604925,-0.074672818,XArbitraryZVertical,-0.059188955,-0.314660104,-0.409475173,-0.854292609,0.489150792,-0.358820379,-0.794971347,0,0,0,-1,-1,48053.43699,unknown,2,2023-02-16T15:32:18.167-08:00,2023-02-14T17:43:35.488-08:00,10095,1.233032,0.6712879,1.921202,7487.105,17,23,2023-02-16T15:32:15.605-08:00,698283138.5,0,-26.43,100.663,1,0.71,0
2023-02-16T15:32:19.026-08:00,1676590338,34.06374647,-118.4510814,123.8981,0.94,1,316.7578086,29.82341312,6.859337601,16.04276538,-9999,48054.29151,0.390777588,-0.197097778,-0.86088562,48054.26272,0.801992935,0.538080052,0.365209725,-0.224427983,-0.355341375,0.362666607,-0.001378953,0.072446734,-0.045777023,XArbitraryZVertical,-0.059143546,-0.308983609,-0.41447717,-0.853955322,0.478689104,-0.35714519,-0.802062333,0,0,0,-1,-1,48053.43699,unknown,2,2023-02-16T15:32:18.167-08:00,2023-02-14T17:43:35.488-08:00,10095,1.233032,0.6712879,1.921202,7487.105,17,23,2023-02-16T15:32:15.605-08:00,698283138.5,0,-26.43,100.663,1,0.71,0
2023-02-16T15:32:19.057-08:00,1676590338,34.06374647,-118.4510814,123.8981,0.94,1,316.7578086,29.82341312,6.859337601,16.04276538,-9999,48054.32526,0.418548584,-0.263626099,-0.824050903,48054.29275,0.815010866,0.52317316,0.366290843,-0.150026083,-0.299356222,0.350207329,-0.076060295,0.172897875,-0.051715076,XArbitraryZVertical,-0.060741681,-0.303188949,-0.419677776,-0.853380034,0.466486931,-0.358154804,-0.808773816,0,0,0,-1,-1,48053.43699,unknown,2,2023-02-16T15:32:18.167-08:00,2023-02-14T17:43:35.488-08:00,10095,1.233032,0.6712879,1.921202,7487.105,17,23,2023-02-16T15:32:15.605-08:00,698283138.5,0,-26.43,100.663,1,0.71,0
2023-02-16T15:32:19.092-08:00,1676590338,34.06374647,-118.4510814,123.8981,0.94,1,316.7578086,29.82341312,6.859337601,16.04276538,-9999,48054.35905,0.392456055,-0.275283813,-0.73815918,48054.3528,0.835421787,0.497077073,0.360067173,-0.125306457,-0.288242638,0.094232038,-0.053334653,0.087520838,0.040311038,XArbitraryZVertical,-0.060460996,-0.291611945,-0.42710917,-0.853747327,0.44627896,-0.352337092,-0.822613895,0,0,0,-1,-1,48053.43699,unknown,2,2023-02-16T15:32:18.167-08:00,2023-02-14T17:43:35.488-08:00,10095,1.233032,0.6712879,1.921202,7487.105,17,23,2023-02-16T15:32:15.605-08:00,698283138.5,0,-26.43,100.663,1,0.71,0
2023-02-16T15:32:19.126-08:00,1676590338,34.06374647,-118.4510814,123.8981,0.94,1,316.7578086,29.82341312,6.859337601,16.04276538,-9999,48054.39284,0.399490356,-0.394790649,-0.664413452,48054.38283,0.839334386,0.487419011,0.358893202,-0.126127303,-0.272400975,0.09779115,-0.024764776,-0.015033782,0.149348319,XArbitraryZVertical,-0.061438146,-0.287402287,-0.428398528,-0.854458852,0.438506842,-0.351238161,-0.82725054,0,0,0,-1,-1,48053.43699,unknown,2,2023-02-16T15:32:18.167-08:00,2023-02-14T17:43:35.488-08:00,10095,1.233032,0.6712879,1.921202,7487.105,17,23,2023-02-16T15:32:15.605-08:00,698283138.5,0,-26.43,100.663,1,0.71,0
2023-02-16T15:32:19.162-08:00,1676590338,34.06374647,-118.4510814,123.8981,0.94,1,316.7578086,29.82341312,6.859337601,16.04276538,-9999,48054.42662,0.333816528,-0.337219238,-0.645675659,48054.41286,0.845568098,0.476832389,0.357472866,-0.05575306,-0.250315726,0.213877052,-0.051611543,8.50E-05,0.19131285,XArbitraryZVertical,-0.062191422,-0.282821181,-0.430633095,-0.854809632,0.429953158,-0.349907964,-0.832288802,0,0,0,-1,-1,48053.43699,unknown,2,2023-02-16T15:32:18.167-08:00,2023-02-14T17:43:35.488-08:00,10095,1.233032,0.6712879,1.921202,7487.105,17,23,2023-02-16T15:32:15.605-08:00,698283138.5,0,-26.43,100.663,1,0.71,0
2023-02-16T15:32:19.192-08:00,1676590339,34.06375284,-118.4510903,124.195,1,0.7186018,311.835933,27.78071869,6.918615188,16.01729057,-9999,48054.46038,0.358215332,-0.348327637,-0.763244629,48054.44288,0.85236519,0.467686559,0.36109692,0.047195375,-0.220690772,0.261876315,-0.084438115,0.02116257,0.149715602,XArbitraryZVertical,-0.064821989,-0.279774348,-0.433497128,-0.854169037,0.421748877,-0.353300631,-0.835048854,0,0,0,-1,-1,48053.43699,unknown,2,2023-02-16T15:32:18.167-08:00,2023-02-14T17:43:35.488-08:00,10095,1.233032,0.6712879,1.921202,7487.105,17,23,2023-02-16T15:32:15.605-08:00,698283138.5,0,-26.43,100.663,1,0.71,0
2023-02-16T15:32:19.227-08:00,1676590339,34.06375284,-118.4510903,124.195,1,0.7186018,311.835933,27.78071869,6.918615188,16.01729057,-9999,48054.49417,0.306304932,-0.358795166,-0.761611938,48054.47291,0.860044166,0.457340407,0.364605586,-0.047272012,-0.280244291,0.268717647,-0.057236105,0.01237309,0.07212162,XArbitraryZVertical,-0.067563432,-0.276242852,-0.436664931,-0.853492048,0.412536979,-0.356580824,-0.83825016,0,0,0,-1,-1,48053.43699,unknown,2,2023-02-16T15:32:18.167-08:00,2023-02-14T17:43:35.488-08:00,10095,1.233032,0.6712879,1.921202,7487.105,17,23,2023-02-16T15:32:15.605-08:00,698283138.5,0,-26.43,100.663,1,0.71,0
2023-02-16T15:32:19.262-08:00,1676590339,34.06375284,-118.4510903,124.195,1,0.7186018,311.835933,27.78071869,6.918615188,16.01729057,-9999,48054.52796,0.356796265,-0.427505493,-0.777481079,48054.50294,0.86856624,0.446730757,0.366795617,-0.041499022,-0.210751444,0.274102926,-0.09941861,-0.005738527,0.082977593,XArbitraryZVertical,-0.069691596,-0.272408442,-0.44007404,-0.852802099,0.403282046,-0.358626038,-0.841873467,0,0,0,-1,-1,48053.43699,unknown,2,2023-02-16T15:32:18.167-08:00,2023-02-14T17:43:35.488-08:00,10095,1.233032,0.6712879,1.921202,7487.105,17,23,2023-02-16T15:32:15.605-08:00,698283138.5,0,-26.43,100.663,1,0.71,0
2023-02-16T15:32:19.297-08:00,1676590339,34.06375284,-118.4510903,124.195,1,0.7186018,311.835933,27.78071869,6.918615188,16.01729057,-9999,48054.56174,0.341201782,-0.36026001,-0.761856079,48054.53296,0.878088503,0.437301421,0.368064901,-0.114651792,-0.209572807,0.292520195,-0.038336664,-0.067694843,0.067744553,XArbitraryZVertical,-0.071049022,-0.268959543,-0.443876349,-0.851813628,0.39513284,-0.359810621,-0.845225573,0,0,0,-1,-1,48053.43699,unknown,2,2023-02-16T15:32:18.167-08:00,2023-02-14T17:43:35.488-08:00,10095,1.233032,0.6712879,1.921202,7487.105,17,23,2023-02-16T15:32:15.605-08:00,698283138.5,0,-26.43,100.663,1,0.71,0
2023-02-16T15:32:19.327-08:00,1676590339,34.06375284,-118.4510903,124.195,1,0.7186018,311.835933,27.78071869,6.918615188,16.01729057,-9999,48054.5955,0.309738159,-0.413208008,-0.831130981,48054.56299,0.887346371,0.427932454,0.369823278,0.009693272,-0.146194234,0.28845495,-0.037766755,0.002411366,0.085313022,XArbitraryZVertical,-0.072677768,-0.265633573,-0.447580768,-0.850780854,0.386933565,-0.361450672,-0.84831351,0,0,0,-1,-1,48053.43699,unknown,2,2023-02-16T15:32:18.167-08:00,2023-02-14T17:43:35.488-08:00,10095,1.233032,0.6712879,1.921202,7487.105,17,23,2023-02-16T15:32:15.605-08:00,698283138.5,0,-26.43,100.663,1,0.71,0
2023-02-16T15:32:19.362-08:00,1676590339,34.06375284,-118.4510903,124.195,1,0.7186018,311.835933,27.78071869,6.918615188,16.01729057,-9999,48054.62929,0.371871948,-0.354019165,-0.940093994,48054.62304,0.904879986,0.420974536,0.376276631,-0.122484684,0.039770111,0.284731537,-0.02701807,-0.015642256,-0.073723078,XArbitraryZVertical,-0.074772219,-0.264555908,-0.455114625,-0.84692966,0.380060643,-0.367460132,-0.848838568,0,0,0,-1,-1,48053.43699,unknown,2,2023-02-16T15:32:18.167-08:00,2023-02-14T17:43:35.488-08:00,10095,1.233032,0.6712879,1.921202,7487.105,17,23,2023-02-16T15:32:15.605-08:00,698283138.5,0,-26.43,100.663,1,0.71,0
2023-02-16T15:32:19.397-08:00,1676590339,34.06375284,-118.4510903,124.195,1,0.7186018,311.835933,27.78071869,6.918615188,16.01729057,-9999,48054.66308,0.35559082,-0.339202881,-0.876754761,48054.65307,0.914402971,0.418383013,0.375919856,-0.115963615,0.048325043,0.249284983,-0.005903572,0.02479738,-0.063389659,XArbitraryZVertical,-0.073949713,-0.263744626,-0.459028176,-0.845141062,0.377912819,-0.367128313,-0.849940419,0,0,0,-1,-1,48053.43699,unknown,2,2023-02-16T15:32:18.167-08:00,2023-02-14T17:43:35.488-08:00,10095,1.233032,0.6712879,1.921202,7487.105,17,23,2023-02-16T15:32:15.605-08:00,698283138.5,0,-26.43,100.663,1,0.71,0
2023-02-16T15:32:19.432-08:00,1676590339,34.06375284,-118.4510903,124.195,1,0.7186018,311.835933,27.78071869,6.918615188,16.01729057,-9999,48054.69686,0.451400757,-0.443359375,-0.849472046,48054.68309,0.923431757,0.418763209,0.374940577,-0.258777916,0.172415972,0.227359101,0.027333975,-0.018441558,-0.016681314,XArbitraryZVertical,-0.072240592,-0.264043455,-0.462802939,-0.843134429,0.378381938,-0.366217226,-0.850124717,0,0,0,-1,-1,48053.43699,unknown,2,2023-02-16T15:32:18.167-08:00,2023-02-14T17:43:35.488-08:00,10095,1.233032,0.6712879,1.921202,7487.105,17,23,2023-02-16T15:32:15.605-08:00,698283138.5,0,-26.43,100.663,1,0.71,0
2023-02-16T15:32:19.463-08:00,1676590339,34.06375284,-118.4510903,124.195,1,0.7186018,311.835933,27.78071869,6.918615188,16.01729057,-9999,48054.73062,0.496307373,-0.340011597,-0.930618286,48054.71312,0.936686766,0.420546177,0.365138849,-0.593158066,0.296612203,0.274967492,0.065997571,-0.065589428,-0.012717545,XArbitraryZVertical,-0.065782733,-0.263306498,-0.467944078,-0.841053229,0.381344289,-0.357078999,-0.852684617,0,0,0,-1,-1,48053.43699,unknown,2,2023-02-16T15:32:18.167-08:00,2023-02-14T17:43:35.488-08:00,10095,1.233032,0.6712879,1.921202,7487.105,17,23,2023-02-16T15:32:15.605-08:00,698283138.5,0,-26.43,100.663,1,0.71,0
2023-02-16T15:32:19.497-08:00,1676590339,34.06375284,-118.4510903,124.195,1,0.7186018,311.835933,27.78071869,6.918615188,16.01729057,-9999,48054.76441,0.493667603,-0.169143677,-1.023193359,48054.74315,0.953459246,0.424378766,0.351495304,-0.610966504,0.323432654,0.281571865,0.115465015,0.044176966,-0.111814797,XArbitraryZVertical,-0.056714131,-0.262668871,-0.474391048,-0.838296801,0.386579603,-0.344302058,-0.855577171,0,0,0,-1,-1,48053.43699,unknown,2,2023-02-16T15:32:18.167-08:00,2023-02-14T17:43:35.488-08:00,10095,1.233032,0.6712879,1.921202,7487.105,17,23,2023-02-16T15:32:15.605-08:00,698283138.5,0,-26.43,100.663,1,0.71,0
2023-02-16T15:32:19.532-08:00,1676590339,34.06375284,-118.4510903,124.195,1,0.7186018,311.835933,27.78071869,6.918615188,16.01729057,-9999,48054.7982,0.428573608,-0.31022644,-0.872497559,48054.77317,0.964888413,0.429381528,0.341286413,-0.244486913,0.280350506,0.067966878,0.092183858,0.158613145,-0.159802437,XArbitraryZVertical,-0.049574544,-0.262964726,-0.478760169,-0.836170215,0.392297924,-0.334699601,-0.856783807,0,0,0,-1,-1,48053.43699,unknown,2,2023-02-16T15:32:18.167-08:00,2023-02-14T17:43:35.488-08:00,10095,1.233032,0.6712879,1.921202,7487.105,17,23,2023-02-16T15:32:15.605-08:00,698283138.5,0,-26.43,100.663,1,0.71,0
2023-02-16T15:32:19.568-08:00,1676590339,34.06375284,-118.4510903,124.195,1,0.7186018,311.835933,27.78071869,6.918615188,16.01729057,-9999,48054.83198,0.452484131,-0.345001221,-0.843444824,48054.8032,0.966369305,0.437900182,0.338646867,-0.020615632,0.326587439,-0.002880891,0.028618097,0.021984696,-0.018289506,XArbitraryZVertical,-0.046190664,-0.266012029,-0.479436232,-0.835011879,0.399955451,-0.332211107,-0.854208052,0,0,0,-1,-1,48053.43699,unknown,2,2023-02-16T15:32:18.167-08:00,2023-02-14T17:43:35.488-08:00,10095,1.233032,0.6712879,1.921202,7487.105,17,23,2023-02-16T15:32:15.605-08:00,698283138.5,0,-26.43,100.663,1,0.71,0
2023-02-16T15:32:19.597-08:00,1676590339,34.06375284,-118.4510903,124.195,1,0.7186018,311.835933,27.78071869,6.918615188,16.01729057,-9999,48054.86574,0.488571167,-0.231796265,-0.930480957,48054.83323,0.969855442,0.446291405,0.335204859,-0.300564677,0.292187691,0.112346202,0.040626615,-0.031526238,0.018382788,XArbitraryZVertical,-0.04221531,-0.268874876,-0.480877595,-0.83347518,0.407600284,-0.328962624,-0.851848364,0,0,0,-1,-1,48053.43699,unknown,2,2023-02-16T15:32:18.167-08:00,2023-02-14T17:43:35.488-08:00,10095,1.233032,0.6712879,1.921202,7487.105,17,23,2023-02-16T15:32:15.605-08:00,698283138.5,0,-26.43,100.663,1,0.71,0
2023-02-16T15:32:19.633-08:00,1676590339,34.06375284,-118.4510903,124.195,1,0.7186018,311.835933,27.78071869,6.918615188,16.01729057,-9999,48054.89953,0.471420288,-0.312927246,-0.909759521,48054.89328,0.985599299,0.456408988,0.325181542,-0.190456867,0.202500373,0.181720644,0.049487084,0.060401857,-0.074786484,XArbitraryZVertical,-0.03330065,-0.271278551,-0.48701457,-0.829527421,0.417630196,-0.319480807,-0.850598037,0,0,0,-1,-1,48053.43699,unknown,2,2023-02-16T15:32:18.167-08:00,2023-02-14T17:43:35.488-08:00,10095,1.233032,0.6712879,1.921202,7487.105,17,23,2023-02-16T15:32:15.605-08:00,698283138.5,0,-26.43,100.663,1,0.71,0
2023-02-16T15:32:19.668-08:00,1676590339,34.06375284,-118.4510903,124.195,1,0.7186018,311.835933,27.78071869,6.918615188,16.01729057,-9999,48054.93332,0.492874146,-0.376419067,-0.832305908,48054.92331,0.997744618,0.456432445,0.318711886,-0.5715186,0.031833623,0.332444489,0.068584412,-0.094981611,-0.010626614,XArbitraryZVertical,-0.028859622,-0.27010043,-0.491650648,-0.827340586,0.418552399,-0.313343585,-0.852425754,0,0,0,-1,-1,48053.43699,unknown,2,2023-02-16T15:32:18.167-08:00,2023-02-14T17:43:35.488-08:00,10095,1.233032,0.6712879,1.921202,7487.105,17,23,2023-02-16T15:32:15.605-08:00,698283138.5,0,-26.43,100.663,1,0.71,0
2023-02-16T15:32:19.702-08:00,1676590339,34.06375284,-118.4510903,124.195,1,0.7186018,311.835933,27.78071869,6.918615188,16.01729057,-9999,48054.9671,0.493881226,-0.284179688,-0.817443848,48054.95333,1.018247502,0.448462882,0.305585023,-0.745014846,-0.113427497,0.446023136,0.065205097,-0.019964874,0.036918283,XArbitraryZVertical,-0.022451662,-0.264220421,-0.499224152,-0.824899193,0.413493603,-0.300851136,-0.859367013,0,0,0,-1,-1,48053.43699,unknown,2,2023-02-16T15:32:18.167-08:00,2023-02-14T17:43:35.488-08:00,10095,1.233032,0.6712879,1.921202,7487.105,17,23,2023-02-16T15:32:15.605-08:00,698283138.5,0,-26.43,100.663,1,0.71,0
2023-02-16T15:32:19.733-08:00,1676590339,34.06375284,-118.4510903,124.195,1,0.7186018,311.835933,27.78071869,6.918615188,16.01729057,-9999,48055.00086,0.518325806,-0.508712769,-0.740142822,48054.98336,1.043752166,0.433982129,0.288307901,-0.981459439,-0.391367257,0.607263982,0.108922362,-0.048372239,0.042641521,XArbitraryZVertical,-0.015400699,-0.254631744,-0.508578757,-0.822358198,0.403132081,-0.284330368,-0.869850993,0,0,0,-1,-1,48053.43699,unknown,2,2023-02-16T15:32:18.167-08:00,2023-02-14T17:43:35.488-08:00,10095,1.233032,0.6712879,1.921202,7487.105,17,23,2023-02-16T15:32:15.605-08:00,698283138.5,0,-26.43,100.663,1,0.71,0
2023-02-16T15:32:19.768-08:00,1676590339,34.06375284,-118.4510903,124.195,1,0.7186018,311.835933,27.78071869,6.918615188,16.01729057,-9999,48055.03465,0.534255981,-0.539154053,-0.386535645,48055.01339,1.08487615,0.408764225,0.258854619,-2.265339136,-0.468875736,0.957021058,0.107908428,-0.265831292,0.27174592,XArbitraryZVertical,-0.004340483,-0.237614181,-0.52368863,-0.818089647,0.384233266,-0.255973488,-0.88704133,0,0,0,-1,-1,48053.43699,unknown,2,2023-02-16T15:32:18.167-08:00,2023-02-14T17:43:35.488-08:00,10095,1.233032,0.6712879,1.921202,7487.105,17,23,2023-02-16T15:32:15.605-08:00,698283138.5,0,-26.43,100.663,1,0.71,0
2023-02-16T15:32:19.802-08:00,1676590339,34.06375284,-118.4510903,124.195,1,0.7186018,311.835933,27.78071869,6.918615188,16.01729057,-9999,48055.06844,0.45715332,-0.273330688,-0.602874756,48055.04341,1.155756797,0.379981786,0.17352572,-4.760533333,-0.539502025,1.107298493,0.180473447,-0.324185252,0.525427222,XArbitraryZVertical,0.031493494,-0.204072994,-0.548108477,-0.810518022,0.365333378,-0.172656193,-0.914724767,0,0,0,-1,-1,48053.43699,unknown,2,2023-02-16T15:32:18.167-08:00,2023-02-14T17:43:35.488-08:00,10095,1.233032,0.6712879,1.921202,7487.105,17,23,2023-02-16T15:32:15.605-08:00,698283138.5,0,-26.43,100.663,1,0.71,0
2023-02-16T15:32:19.837-08:00,1676590339,34.06375284,-118.4510903,124.195,1,0.7186018,311.835933,27.78071869,6.918615188,16.01729057,-9999,48055.10222,0.26725769,0.630966187,-0.776687622,48055.07344,1.253585806,0.342718932,0.006842977,-8.160862923,-1.481508613,0.954772949,0.121112019,-0.266487777,0.338947654,XArbitraryZVertical,0.097288678,-0.140084671,-0.57842877,-0.797703737,0.336041272,-0.006842923,-0.94182241,0,0,0,-1,-1,48053.43699,unknown,2,2023-02-16T15:32:18.167-08:00,2023-02-14T17:43:35.488-08:00,10095,1.233032,0.6712879,1.921202,7487.105,17,23,2023-02-16T15:32:15.605-08:00,698283138.5,0,-26.43,100.663,1,0.71,0
2023-02-16T15:32:19.868-08:00,1676590339,34.06375284,-118.4510903,124.195,1,0.7186018,311.835933,27.78071869,6.918615188,16.01729057,-9999,48055.13598,0.073226929,0.81880188,-0.733444214,48055.10347,1.357389579,0.29487362,-0.253411612,-9.599131584,-2.269898891,0.123223543,0.006504387,0.27445361,0.148539603,XArbitraryZVertical,0.188779306,-0.034962011,-0.601538932,-0.775429505,0.281337351,0.250708073,-0.926280081,0,0,0,-1,-1,48053.43699,unknown,2,2023-02-16T15:32:18.167-08:00,2023-02-14T17:43:35.488-08:00,10095,1.233032,0.6712879,1.921202,7487.105,17,23,2023-02-16T15:32:15.605-08:00,698283138.5,0,-26.43,100.663,1,0.71,0
2023-02-16T15:32:19.903-08:00,1676590339,34.06375284,-118.4510903,124.195,1,0.7186018,311.835933,27.78071869,6.918615188,16.01729057,-9999,48055.16977,-0.06427002,0.776107788,-0.415817261,48055.16352,1.476108729,0.23124692,-0.726689645,-7.347929001,-1.678732514,-1.129299641,-0.147763565,0.088805079,0.22585094,XArbitraryZVertical,0.333720151,0.157762535,-0.59439045,-0.71445207,0.171292603,0.664399207,-0.72748369,0,0,0,-1,-1,48053.43699,unknown,2,2023-02-16T15:32:18.167-08:00,2023-02-14T17:43:35.488-08:00,10095,1.233032,0.6712879,1.921202,7487.105,17,23,2023-02-16T15:32:15.605-08:00,698283138.5,0,-26.43,100.663,1,0.71,0
2023-02-16T15:32:19.938-08:00,1676590339,34.06375284,-118.4510903,124.195,1,0.7186018,311.835933,27.78071869,6.918615188,16.01729057,-9999,48055.20356,-0.158859253,1.187423706,-0.260559082,48055.19355,1.473827329,0.184084133,-0.954291779,-7.482131958,-1.18576467,-1.969987035,-0.281463593,0.291288495,0.377744019,XArbitraryZVertical,0.393519912,0.246846393,-0.563163295,-0.68341498,0.105834894,0.815904438,-0.568417847,0,0,0,-1,-1,48053.43699,unknown,2,2023-02-16T15:32:18.167-08:00,2023-02-14T17:43:35.488-08:00,10095,1.233032,0.6712879,1.921202,7487.105,17,23,2023-02-16T15:32:15.605-08:00,698283138.5,0,-26.43,100.663,1,0.71,0
2023-02-16T15:32:19.972-08:00,1676590339,34.06375284,-118.4510903,124.195,1,0.7186018,311.835933,27.78071869,6.918615188,16.01729057,-9999,48055.23734,-0.213150024,1.026779175,-0.060409546,48055.22357,1.418322057,0.110805727,-1.183592035,-7.273351669,-0.464104414,-2.006143808,-0.196417898,0.135463476,0.140834212,XArbitraryZVertical,0.452636836,0.32783704,-0.516182204,-0.648998272,0.041754816,0.925968349,-0.375285536,0,0,0,-1,-1,48053.43699,unknown,2,2023-02-16T15:32:18.167-08:00,2023-02-14T17:43:35.488-08:00,10095,1.233032,0.6712879,1.921202,7487.105,17,23,2023-02-16T15:32:15.605-08:00,698283138.5,0,-26.43,100.663,1,0.71,0
2023-02-16T15:32:20.003-08:00,1676590339,34.06375284,-118.4510903,124.195,1,0.7186018,311.835933,27.78071869,6.918615188,16.01729057,-9999,48055.2711,-0.241897583,1.028671265,0.097412109,48055.2536,1.215043235,-0.087872301,-1.390503894,-6.279471874,0.272583514,-1.871543765,-0.17505914,0.178302765,0.106649578,XArbitraryZVertical,0.506196813,0.393003973,-0.461017379,-0.613820511,-0.015736744,0.983791292,-0.17862533,0,0,0,-1,-1,48053.43699,unknown,2,2023-02-16T15:32:18.167-08:00,2023-02-14T17:43:35.488-08:00,10095,1.233032,0.6712879,1.921202,7487.105,17,23,2023-02-16T15:32:15.605-08:00,698283138.5,0,-26.43,100.663,1,0.71,0
2023-02-16T15:32:20.042-08:00,1676590339,34.06375284,-118.4510903,124.195,1,0.7186018,311.835933,27.78071869,6.918615188,16.01729057,-9999,48055.30489,-0.242797852,1.470153809,0.185958862,48055.28363,0.186872385,-1.094786611,-1.499745896,-3.665530682,0.765276372,-1.433835506,-0.209866405,-0.011164188,0.198805094,XArbitraryZVertical,0.543888121,0.433498128,-0.411471359,-0.589030011,-0.063098043,0.997476995,-0.03253017,0,0,0,-1,-1,48053.43699,unknown,2,2023-02-16T15:32:18.167-08:00,2023-02-14T17:43:35.488-08:00,10095,1.233032,0.6712879,1.921202,7487.105,17,23,2023-02-16T15:32:15.605-08:00,698283138.5,0,-26.43,100.663,1,0.71,0
2023-02-16T15:32:20.072-08:00,1676590339,34.06375284,-118.4510903,124.195,1,0.7186018,311.835933,27.78071869,6.918615188,16.01729057,-9999,48055.33868,-0.100692749,0.80380249,-0.376861572,48055.31365,-0.741394367,-1.993170539,-1.460596043,-1.800718546,0.843335688,-0.986287177,-0.103056148,0.502144456,0.064276695,XArbitraryZVertical,0.564329501,0.451745193,-0.375468114,-0.580070915,-0.10031303,0.993934095,0.045083009,0,0,0,-1,-1,48053.43699,unknown,2,2023-02-16T15:32:18.167-08:00,2023-02-14T17:43:35.488-08:00,10095,1.233032,0.6712879,1.921202,7487.105,17,23,2023-02-16T15:32:15.605-08:00,698283138.5,0,-26.43,100.663,1,0.71,0
2023-02-16T15:32:20.107-08:00,1676590339,34.06375284,-118.4510903,124.195,1,0.7186018,311.835933,27.78071869,6.918615188,16.01729057,-9999,48055.37246,-0.110992432,1.171432495,-0.192733765,48055.34368,-1.016042864,-2.246697434,-1.415153652,-2.229218721,0.391932547,-0.425412297,0.020240612,-0.184109747,-0.473838687,XArbitraryZVertical,0.578992788,0.461796332,-0.352053547,-0.572337041,-0.120933361,0.987912118,0.096977003,0,0,0,-1,-1,48053.43699,unknown,2,2023-02-16T15:32:18.167-08:00,2023-02-14T17:43:35.488-08:00,10095,1.233032,0.6712879,1.921202,7487.105,17,23,2023-02-16T15:32:15.605-08:00,698283138.5,0,-26.43,100.663,1,0.71,0
2023-02-16T15:32:20.138-08:00,1676590339,34.06375284,-118.4510903,124.195,1,0.7186018,311.835933,27.78071869,6.918615188,16.01729057,-9999,48055.40622,-0.115036011,1.139968872,0.021682739,48055.37371,-1.234648185,-2.456197582,-1.364461076,-1.436154962,0.05636793,-0.142691389,0.020504236,0.151781082,-0.374290109,XArbitraryZVertical,0.595932893,0.473463318,-0.333278876,-0.556436524,-0.129680872,0.978788316,0.158607051,0,0,0,-1,-1,48053.43699,unknown,2,2023-02-16T15:32:18.167-08:00,2023-02-14T17:43:35.488-08:00,10095,1.233032,0.6712879,1.921202,7487.105,17,23,2023-02-16T15:32:15.605-08:00,698283138.5,0,-26.43,100.663,1,0.71,0
2023-02-16T15:32:20.173-08:00,1676590339,34.06375284,-118.4510903,124.195,1,0.7186018,311.835933,27.78071869,6.918615188,16.01729057,-9999,48055.44001,-0.148223877,1.020339966,0.152160645,48055.43376,-1.253428863,-2.473066566,-1.357081339,-0.480710268,0.123276651,-0.026341343,-0.051598847,-0.030624986,-0.005074501,XArbitraryZVertical,0.59808825,0.474877347,-0.330449788,-0.554603359,-0.131460875,0.977249742,0.166436106,0,0,0,-1,-1,48053.43699,unknown,2,2023-02-16T15:32:18.167-08:00,2023-02-14T17:43:35.488-08:00,10095,1.233032,0.6712879,1.921202,7487.105,17,23,2023-02-16T15:32:15.605-08:00,698283138.5,0,-26.43,100.663,1,0.71,0
2023-02-16T15:32:20.208-08:00,1676590339,34.06375284,-118.4510903,124.195,1,0.7186018,311.835933,27.78071869,6.918615188,16.01729057,-9999,48055.4738,-0.12638855,1.182723999,0.098220825,48055.46379,-1.293793646,-2.508501065,-1.34310574,-0.275981873,0.110919118,-0.059930764,0.020161748,0.200553298,-0.063070893,XArbitraryZVertical,0.602945914,0.476914562,-0.324947456,-0.550833773,-0.133549809,0.974190295,0.181982547,0,0,0,-1,-1,48053.43699,unknown,2,2023-02-16T15:32:18.167-08:00,2023-02-14T17:43:35.488-08:00,10095,1.233032,0.6712879,1.921202,7487.105,17,23,2023-02-16T15:32:15.605-08:00,698283138.5,0,-26.43,100.663,1,0.71,0
2023-02-16T15:32:20.243-08:00,1676590340,34.06375929,-118.4510977,124.6504,0.94,1.02,316.7578086,33.35128438,6.999094647,15.9822873,-9999,48055.50758,-0.139404297,0.918945313,0.226135254,48055.49381,-1.268936477,-2.482495131,-1.347760186,0.587255418,0.030328337,-0.023997627,0.004049867,0.045353651,-0.09141171,XArbitraryZVertical,0.600896614,0.475766993,-0.325643242,-0.553647457,-0.135458529,0.975230396,0.174861938,0,0,0,-1,-1,48053.43699,unknown,2,2023-02-16T15:32:18.167-08:00,2023-02-14T17:43:35.488-08:00,10095,1.233032,0.6712879,1.921202,7487.105,17,23,2023-02-16T15:32:15.605-08:00,698283138.5,0,-26.43,100.663,1,0.71,0
2023-02-16T15:32:20.273-08:00,1676590340,34.06375929,-118.4510977,124.6504,0.94,1.02,316.7578086,33.35128438,6.999094647,15.9822873,-9999,48055.54134,-0.121505737,0.929992676,0.233291626,48055.52384,-1.241869873,-2.45490422,-1.357271688,-0.015351042,0.062806584,0.101658203,-0.031412855,-0.143000722,0.127749309,XArbitraryZVertical,0.598326617,0.473226729,-0.328298206,-0.557029476,-0.134343371,0.977290094,0.163876548,0,0,0,-1,-1,48053.43699,unknown,2,2023-02-16T15:32:18.167-08:00,2023-02-14T17:43:35.488-08:00,10095,1.233032,0.6712879,1.921202,7487.105,17,23,2023-02-16T15:32:15.605-08:00,698283138.5,0,-26.43,100.663,1,0.71,0
2023-02-16T15:32:20.308-08:00,1676590340,34.06375929,-118.4510977,124.6504,0.94,1.02,316.7578086,33.35128438,6.999094647,15.9822873,-9999,48055.57513,-0.126571655,1.008270264,0.193206787,48055.55387,-1.272138762,-2.482745241,-1.35392788,-0.180990651,0.042663898,0.084552377,0.014770687,-0.015455723,0.039504722,XArbitraryZVertical,0.60115953,0.472943003,-0.327034306,-0.554959919,-0.131729245,0.97657609,0.170135722,0,0,0,-1,-1,48053.43699,unknown,2,2023-02-16T15:32:18.167-08:00,2023-02-14T17:43:35.488-08:00,10095,1.233032,0.6712879,1.921202,7487.105,17,23,2023-02-16T15:32:15.605-08:00,698283138.5,0,-26.43,100.663,1,0.71,0
2023-02-16T15:32:20.343-08:00,1676590340,34.06375929,-118.4510977,124.6504,0.94,1.02,316.7578086,33.35128438,6.999094647,15.9822873,-9999,48055.60892,-0.107299805,0.683242798,0.177246094,48055.58389,-1.263064631,-2.472705302,-1.360351662,0.643770933,0.061194904,0.071627825,-0.003579348,0.02665472,0.03813076,XArbitraryZVertical,0.600192495,0.470859999,-0.328834489,-0.556711484,-0.129538357,0.977938116,0.163880333,0,0,0,-1,-1,48053.43699,unknown,2,2023-02-16T15:32:18.167-08:00,2023-02-14T17:43:35.488-08:00,10095,1.233032,0.6712879,1.921202,7487.105,17,23,2023-02-16T15:32:15.605-08:00,698283138.5,0,-26.43,100.663,1,0.71,0
2023-02-16T15:32:20.378-08:00,1676590340,34.06375929,-118.4510977,124.6504,0.94,1.02,316.7578086,33.35128438,6.999094647,15.9822873,-9999,48055.6427,-0.061950684,0.892654419,0.0990448,48055.61392,-1.217627541,-2.426175648,-1.371701635,-0.070077561,0.060045019,-0.005315187,0.022431597,-0.297003329,0.027956471,XArbitraryZVertical,0.596469243,0.467834614,-0.331693799,-0.561546433,-0.129731417,0.980246007,0.149289563,0,0,0,-1,-1,48053.43699,unknown,2,2023-02-16T15:32:18.167-08:00,2023-02-14T17:43:35.488-08:00,10095,1.233032,0.6712879,1.921202,7487.105,17,23,2023-02-16T15:32:15.605-08:00,698283138.5,0,-26.43,100.663,1,0.71,0
2023-02-16T15:32:20.408-08:00,1676590340,34.06375929,-118.4510977,124.6504,0.94,1.02,316.7578086,33.35128438,6.999094647,15.9822873,-9999,48055.67646,-0.121200562,0.827713013,0.159133911,48055.64395,-1.264272427,-2.472909364,-1.357840719,-0.709547043,-0.095398366,-0.151209399,0.07673578,-0.172372222,-0.094665661,XArbitraryZVertical,0.60062505,0.471344709,-0.327662377,-0.556525791,-0.131026506,0.977410495,0.165832564,0,0,0,-1,-1,48053.43699,unknown,2,2023-02-16T15:32:18.167-08:00,2023-02-14T17:43:35.488-08:00,10095,1.233032,0.6712879,1.921202,7487.105,17,23,2023-02-16T15:32:15.605-08:00,698283138.5,0,-26.43,100.663,1,0.71,0
2023-02-16T15:32:20.444-08:00,1676590340,34.06375929,-118.4510977,124.6504,0.94,1.02,316.7578086,33.35128438,6.999094647,15.9822873,-9999,48055.71025,-0.220687866,0.830810547,0.171722412,48055.704,-1.289229093,-2.505892852,-1.322974437,-0.631018698,-0.141995952,-0.323281854,-0.01901719,-0.141629219,-0.050358176,XArbitraryZVertical,0.603856544,0.483782513,-0.318242904,-0.547752856,-0.145640388,0.969448984,0.19737649,0,0,0,-1,-1,48053.43699,unknown,2,2023-02-16T15:32:18.167-08:00,2023-02-14T17:43:35.488-08:00,10095,1.233032,0.6712879,1.921202,7487.105,17,23,2023-02-16T15:32:15.605-08:00,698283138.5,0,-26.43,100.663,1,0.71,0
2023-02-16T15:32:20.478-08:00,1676590340,34.06375929,-118.4510977,124.6504,0.94,1.02,316.7578086,33.35128438,6.999094647,15.9822873,-9999,48055.74404,-0.221069336,0.903778076,0.145050049,48055.73403,-1.291766665,-2.511078958,-1.308324127,-0.128705293,-0.050353926,-0.231530219,-0.08346273,-0.119026124,-0.048705831,XArbitraryZVertical,0.604771985,0.488917622,-0.313877419,-0.544693773,-0.152972236,0.965751469,0.209579185,0,0,0,-1,-1,48053.43699,unknown,2,2023-02-16T15:32:18.167-08:00,2023-02-14T17:43:35.488-08:00,10095,1.233032,0.6712879,1.921202,7487.105,17,23,2023-02-16T15:32:15.605-08:00,698283138.5,0,-26.43,100.663,1,0.71,0
2023-02-16T15:32:20.513-08:00,1676590340,34.06375929,-118.4510977,124.6504,0.94,1.02,316.7578086,33.35128438,6.999094647,15.9822873,-9999,48055.77782,-0.252609253,0.87802124,0.224273682,48055.76405,-1.268246989,-2.489544912,-1.305185541,0.033124935,-0.029608499,-0.233729824,-0.066480801,-0.069683909,-0.025433034,XArbitraryZVertical,0.602608081,0.491107034,-0.312661376,-0.545820716,-0.159288242,0.964932323,0.208645239,0,0,0,-1,-1,48053.43699,unknown,2,2023-02-16T15:32:18.167-08:00,2023-02-14T17:43:35.488-08:00,10095,1.233032,0.6712879,1.921202,7487.105,17,23,2023-02-16T15:32:15.605-08:00,698283138.5,0,-26.43,100.663,1,0.71,0
2023-02-16T15:32:20.543-08:00,1676590340,34.06375929,-118.4510977,124.6504,0.94,1.02,316.7578086,33.35128438,6.999094647,15.9822873,-9999,48055.81158,-0.28515625,0.994796753,0.259841919,48055.79408,-1.263407704,-2.48575165,-1.294976502,-0.467126429,-0.041070677,-0.235326022,-0.100341186,-0.058393776,0.007553086,XArbitraryZVertical,0.602683359,0.49466201,-0.309147844,-0.544527118,-0.166077241,0.962202251,0.215835467,0,0,0,-1,-1,48053.43699,unknown,2,2023-02-16T15:32:18.167-08:00,2023-02-14T17:43:35.488-08:00,10095,1.233032,0.6712879,1.921202,7487.105,17,23,2023-02-16T15:32:15.605-08:00,698283138.5,0,-26.43,100.663,1,0.71,0
2023-02-16T15:32:20.578-08:00,1676590340,34.06375929,-118.4510977,124.6504,0.94,1.02,316.7578086,33.35128438,6.999094647,15.9822873,-9999,48055.84537,-0.255859375,1.121810913,0.298553467,48055.82411,-1.279083976,-2.502538958,-1.278206808,-0.506867051,-0.064801171,-0.2110852,-0.111400589,0.073124111,0.049187407,XArbitraryZVertical,0.605120647,0.499585382,-0.303897186,-0.540268295,-0.172031358,0.95750016,0.231513098,0,0,0,-1,-1,48053.43699,unknown,2,2023-02-16T15:32:18.167-08:00,2023-02-14T17:43:35.488-08:00,10095,1.233032,0.6712879,1.921202,7487.105,17,23,2023-02-16T15:32:15.605-08:00,698283138.5,0,-26.43,100.663,1,0.71,0
2023-02-16T15:32:20.613-08:00,1676590340,34.06375929,-118.4510977,124.6504,0.94,1.02,316.7578086,33.35128438,6.999094647,15.9822873,-9999,48055.87916,-0.24899292,1.035751343,0.259155273,48055.85413,-1.2854524,-2.510727225,-1.263826574,-0.349992216,-0.094543092,-0.254193902,-0.072437659,0.175621986,0.047419176,XArbitraryZVertical,0.606461136,0.504191506,-0.299459831,-0.53695394,-0.178233728,0.953253627,0.244008362,0,0,0,-1,-1,48053.43699,unknown,2,2023-02-16T15:32:18.167-08:00,2023-02-14T17:43:35.488-08:00,10095,1.233032,0.6712879,1.921202,7487.105,17,23,2023-02-16T15:32:15.605-08:00,698283138.5,0,-26.43,100.663,1,0.71,0
2023-02-16T15:32:20.648-08:00,1676590340,34.06375929,-118.4510977,124.6504,0.94,1.02,316.7578086,33.35128438,6.999094647,15.9822873,-9999,48055.91294,-0.218948364,1.113723755,0.317153931,48055.88416,-1.292531844,-2.521423588,-1.24876768,-0.559217036,-0.177042231,-0.190979257,-0.065056816,0.087155879,0.001600951,XArbitraryZVertical,0.607695357,0.509395224,-0.295361273,-0.532901947,-0.183936059,0.948595345,0.257554293,0,0,0,-1,-1,48053.43699,unknown,2,2023-02-16T15:32:18.167-08:00,2023-02-14T17:43:35.488-08:00,10095,1.233032,0.6712879,1.921202,7487.105,17,23,2023-02-16T15:32:15.605-08:00,698283138.5,0,-26.43,100.663,1,0.71,0
2023-02-16T15:32:20.679-08:00,1676590340,34.06375929,-118.4510977,124.6504,0.94,1.02,316.7578086,33.35128438,6.999094647,15.9822873,-9999,48055.9467,-0.176773071,1.096572876,0.379211426,48055.91419,-1.315806216,-2.550281659,-1.230957656,-0.723894894,-0.278150916,-0.080026008,-0.044635907,0.165925741,0.041697294,XArbitraryZVertical,0.610701438,0.515182388,-0.291554855,-0.525953078,-0.185817584,0.942808449,0.276738286,0,0,0,-1,-1,48053.43699,unknown,2,2023-02-16T15:32:18.167-08:00,2023-02-14T17:43:35.488-08:00,10095,1.233032,0.6712879,1.921202,7487.105,17,23,2023-02-16T15:32:15.605-08:00,698283138.5,0,-26.43,100.663,1,0.71,0
2023-02-16T15:32:20.714-08:00,1676590340,34.06375929,-118.4510977,124.6504,0.94,1.02,316.7578086,33.35128438,6.999094647,15.9822873,-9999,48055.98049,-0.075271606,1.058120728,0.371185303,48055.97424,-1.395093198,-2.647157657,-1.181799403,-1.202301741,-0.384075105,-0.011615726,0.069177896,0.101534903,0.096550465,XArbitraryZVertical,0.621691251,0.529546381,-0.283465259,-0.50272056,-0.179971963,0.925289929,0.333838761,0,0,0,-1,-1,48053.43699,unknown,2,2023-02-16T15:32:18.167-08:00,2023-02-14T17:43:35.488-08:00,10095,1.233032,0.6712879,1.921202,7487.105,17,23,2023-02-16T15:32:15.605-08:00,698283138.5,0,-26.43,100.663,1,0.71,0
2023-02-16T15:32:20.748-08:00,1676590340,34.06375929,-118.4510977,124.6504,0.94,1.02,316.7578086,33.35128438,6.999094647,15.9822873,-9999,48056.01428,-0.022399902,0.943664551,0.300872803,48056.00427,-1.42754556,-2.688061262,-1.153169767,-0.816763222,-0.332899392,-0.128815517,0.149050996,0.121391833,-0.071513087,XArbitraryZVertical,0.62744345,0.537223409,-0.278142595,-0.490247158,-0.177707002,0.914054155,0.364588559,0,0,0,-1,-1,48053.43699,unknown,2,2023-02-16T15:32:18.167-08:00,2023-02-14T17:43:35.488-08:00,10095,1.233032,0.6712879,1.921202,7487.105,17,23,2023-02-16T15:32:15.605-08:00,698283138.5,0,-26.43,100.663,1,0.71,0
2023-02-16T15:32:20.783-08:00,1676590340,34.06375929,-118.4510977,124.6504,0.94,1.02,316.7578086,33.35128438,6.999094647,15.9822873,-9999,48056.04806,-0.027481079,0.982574463,0.358886719,48056.03429,-1.435637628,-2.704704727,-1.135192065,-0.344830543,-0.300126553,-0.162931412,0.145199165,0.041916728,-0.036850482,XArbitraryZVertical,0.629183217,0.543406661,-0.275135546,-0.482843663,-0.178539589,0.906615257,0.382324636,0,0,0,-1,-1,48053.43699,unknown,2,2023-02-16T15:32:18.167-08:00,2023-02-14T17:43:35.488-08:00,10095,1.233032,0.6712879,1.921202,7487.105,17,23,2023-02-16T15:32:15.605-08:00,698283138.5,0,-26.43,100.663,1,0.71,0
2023-02-16T15:32:20.814-08:00,1676590340,34.06375929,-118.4510977,124.6504,0.94,1.02,316.7578086,33.35128438,6.999094647,15.9822873,-9999,48056.08182,-0.002487183,0.950210571,0.303039551,48056.06432,-1.430919877,-2.711527167,-1.128110749,-0.145069256,-0.476135671,-0.164708272,0.165614143,0.08647716,-0.047822267,XArbitraryZVertical,0.627688656,0.548349127,-0.275944352,-0.478722065,-0.178599373,0.903604507,0.389359623,0,0,0,-1,-1,48055.99926,unknown,2,2023-02-16T15:32:20.730-08:00,2023-02-14T17:43:35.488-08:00,10100,1.232782,0.6806797,1.921202,7490.928,17,23,2023-02-16T15:32:18.167-08:00,698283138.5,0,-26.43,100.663,1,0.71,0
2023-02-16T15:32:20.848-08:00,1676590340,34.06375929,-118.4510977,124.6504,0.94,1.02,316.7578086,33.35128438,6.999094647,15.9822873,-9999,48056.11561,-0.019882202,0.992416382,0.455627441,48056.09435,-1.427719584,-2.727840815,-1.118619951,-0.309671134,-0.768601835,-0.153267503,0.15645349,0.013618112,-0.061112642,XArbitraryZVertical,0.625528551,0.555645648,-0.278502631,-0.471601793,-0.175664276,0.899498343,0.400056094,0,0,0,-1,-1,48055.99926,unknown,2,2023-02-16T15:32:20.730-08:00,2023-02-14T17:43:35.488-08:00,10100,1.232782,0.6806797,1.921202,7490.928,17,23,2023-02-16T15:32:18.167-08:00,698283138.5,0,-26.43,100.663,1,0.71,0
2023-02-16T15:32:20.884-08:00,1676590340,34.06375929,-118.4510977,124.6504,0.94,1.02,316.7578086,33.35128438,6.999094647,15.9822873,-9999,48056.1494,-0.065078735,0.871658325,0.376220703,48056.12437,-1.427739411,-2.752176408,-1.108134395,-0.277125925,-0.829696655,-0.128534287,0.142379925,0.096450031,0.047305316,XArbitraryZVertical,0.623227723,0.563954505,-0.282436862,-0.46235466,-0.169449016,0.894867539,0.412914962,0,0,0,-1,-1,48055.99926,unknown,2,2023-02-16T15:32:20.730-08:00,2023-02-14T17:43:35.488-08:00,10100,1.232782,0.6806797,1.921202,7490.928,17,23,2023-02-16T15:32:18.167-08:00,698283138.5,0,-26.43,100.663,1,0.71,0
2023-02-16T15:32:20.918-08:00,1676590340,34.06375929,-118.4510977,124.6504,0.94,1.02,316.7578086,33.35128438,6.999094647,15.9822873,-9999,48056.18318,-0.147674561,0.650894165,0.286392212,48056.1544,-1.427119989,-2.774526122,-1.10015512,-0.196623251,-0.693860471,-0.090139233,0.097657621,-0.019619644,-0.047029346,XArbitraryZVertical,0.620734214,0.571239019,-0.286749775,-0.454036831,-0.162736312,0.89127773,0.42324996,0,0,0,-1,-1,48055.99926,unknown,2,2023-02-16T15:32:20.730-08:00,2023-02-14T17:43:35.488-08:00,10100,1.232782,0.6806797,1.921202,7490.928,17,23,2023-02-16T15:32:18.167-08:00,698283138.5,0,-26.43,100.663,1,0.71,0
2023-02-16T15:32:20.949-08:00,1676590340,34.06375929,-118.4510977,124.6504,0.94,1.02,316.7578086,33.35128438,6.999094647,15.9822873,-9999,48056.21694,-0.216629028,0.696136475,0.273208618,48056.18443,-1.427556315,-2.794462818,-1.092849955,-0.291103214,-0.620781004,-0.053467371,0.020048484,-0.208375871,-0.153011143,XArbitraryZVertical,0.618791291,0.577371742,-0.290289126,-0.446622234,-0.156477347,0.88794136,0.432521582,0,0,0,-1,-1,48055.99926,unknown,2,2023-02-16T15:32:20.730-08:00,2023-02-14T17:43:35.488-08:00,10100,1.232782,0.6806797,1.921202,7490.928,17,23,2023-02-16T15:32:18.167-08:00,698283138.5,0,-26.43,100.663,1,0.71,0
2023-02-16T15:32:20.984-08:00,1676590340,34.06375929,-118.4510977,124.6504,0.94,1.02,316.7578086,33.35128438,6.999094647,15.9822873,-9999,48056.25073,-0.233917236,0.766326904,0.304199219,48056.24448,-1.431351546,-2.827680835,-1.088234234,0.040684424,-0.344953209,-0.067712851,-0.092702299,-0.104162216,-0.14410162,XArbitraryZVertical,0.61553615,0.584638242,-0.298102868,-0.436403466,-0.143290132,0.885808885,0.441373259,0,0,0,-1,-1,48055.99926,unknown,2,2023-02-16T15:32:20.730-08:00,2023-02-14T17:43:35.488-08:00,10100,1.232782,0.6806797,1.921202,7490.928,17,23,2023-02-16T15:32:18.167-08:00,698283138.5,0,-26.43,100.663,1,0.71,0
2023-02-16T15:32:21.018-08:00,1676590340,34.06375929,-118.4510977,124.6504,0.94,1.02,316.7578086,33.35128438,6.999094647,15.9822873,-9999,48056.28452,-0.230072021,0.704467773,0.263519287,48056.27451,-1.425382628,-2.831315869,-1.085480773,-0.123496637,-0.266425163,-0.117624715,-0.075924292,-0.21784085,-0.160856515,XArbitraryZVertical,0.613565516,0.587914469,-0.299566241,-0.433767155,-0.142428949,0.884527802,0.444212139,0,0,0,-1,-1,48055.99926,unknown,2,2023-02-16T15:32:20.730-08:00,2023-02-14T17:43:35.488-08:00,10100,1.232782,0.6806797,1.921202,7490.928,17,23,2023-02-16T15:32:18.167-08:00,698283138.5,0,-26.43,100.663,1,0.71,0
2023-02-16T15:32:21.053-08:00,1676590340,34.06375929,-118.4510977,124.6504,0.94,1.02,316.7578086,33.35128438,6.999094647,15.9822873,-9999,48056.3183,-0.241943359,0.835159302,0.382278442,48056.30453,-1.420477139,-2.834574215,-1.083016105,0.011488882,-0.228939772,-0.070414893,-0.107567325,-0.129377663,-0.158268005,XArbitraryZVertical,0.61191839,0.590703957,-0.300771749,-0.431463781,-0.141639203,0.883375347,0.446750551,0,0,0,-1,-1,48055.99926,unknown,2,2023-02-16T15:32:20.730-08:00,2023-02-14T17:43:35.488-08:00,10100,1.232782,0.6806797,1.921202,7490.928,17,23,2023-02-16T15:32:18.167-08:00,698283138.5,0,-26.43,100.663,1,0.71,0
2023-02-16T15:32:21.084-08:00,1676590340,34.06375929,-118.4510977,124.6504,0.94,1.02,316.7578086,33.35128438,6.999094647,15.9822873,-9999,48056.35206,-0.201751709,1.015441895,0.332473755,48056.33456,-1.416584587,-2.836516377,-1.080346293,-0.160883784,-0.129066646,-0.114751101,-0.076858789,0.002644658,-0.054207802,XArbitraryZVertical,0.610784233,0.592941062,-0.301276897,-0.429646065,-0.141479239,0.882120967,0.44927296,0,0,0,-1,-1,48055.99926,unknown,2,2023-02-16T15:32:20.730-08:00,2023-02-14T17:43:35.488-08:00,10100,1.232782,0.6806797,1.921202,7490.928,17,23,2023-02-16T15:32:18.167-08:00,698283138.5,0,-26.43,100.663,1,0.71,0
2023-02-16T15:32:21.119-08:00,1676590340,34.06375929,-118.4510977,124.6504,0.94,1.02,316.7578086,33.35128438,6.999094647,15.9822873,-9999,48056.38585,-0.215774536,0.968276978,0.320632935,48056.36459,-1.40940565,-2.83291471,-1.073934633,-0.154406875,-0.046145398,-0.220666349,-0.054300174,0.114432216,-0.132057369,XArbitraryZVertical,0.609926534,0.595868768,-0.299485241,-0.428063865,-0.144811779,0.879082799,0.454139918,0,0,0,-1,-1,48055.99926,unknown,2,2023-02-16T15:32:20.730-08:00,2023-02-14T17:43:35.488-08:00,10100,1.232782,0.6806797,1.921202,7490.928,17,23,2023-02-16T15:32:18.167-08:00,698283138.5,0,-26.43,100.663,1,0.71,0
2023-02-16T15:32:21.154-08:00,1676590340,34.06375929,-118.4510977,124.6504,0.94,1.02,316.7578086,33.35128438,6.999094647,15.9822873,-9999,48056.41964,-0.226806641,1.029953003,0.407943726,48056.39461,-1.397184467,-2.822587744,-1.069621273,0.060617067,0.023596331,-0.222363278,-0.069914743,0.103968978,-0.132562339,XArbitraryZVertical,0.608299551,0.598397754,-0.297446443,-0.428272581,-0.15068163,0.877018631,0.456216425,0,0,0,-1,-1,48055.99926,unknown,2,2023-02-16T15:32:20.730-08:00,2023-02-14T17:43:35.488-08:00,10100,1.232782,0.6806797,1.921202,7490.928,17,23,2023-02-16T15:32:18.167-08:00,698283138.5,0,-26.43,100.663,1,0.71,0
2023-02-16T15:32:21.189-08:00,1676590340,34.06375929,-118.4510977,124.6504,0.94,1.02,316.7578086,33.35128438,6.999094647,15.9822873,-9999,48056.45342,-0.207168579,1.011535645,0.581893921,48056.42464,-1.381060927,-2.807444017,-1.071955825,0.110453546,0.044720594,-0.197876751,-0.069905654,0.151815236,-0.044003427,XArbitraryZVertical,0.605471335,0.599481435,-0.297137739,-0.43097065,-0.156901047,0.878137887,0.451947063,0,0,0,-1,-1,48055.99926,unknown,2,2023-02-16T15:32:20.730-08:00,2023-02-14T17:43:35.488-08:00,10100,1.232782,0.6806797,1.921202,7490.928,17,23,2023-02-16T15:32:18.167-08:00,698283138.5,0,-26.43,100.663,1,0.71,0
2023-02-16T15:32:21.219-08:00,1676590341,34.06376918,-118.4511013,124.9728,1,0.7186018,336.4453101,13,6.896362103,16.02688438,-9999,48056.48718,-0.218566895,1.024383545,0.492080688,48056.45467,-1.371202584,-2.796187021,-1.071238857,-0.066074625,0.139757499,-0.131717771,-0.054300189,0.113568664,0.12242189,XArbitraryZVertical,0.604257022,0.60020445,-0.295607611,-0.432717048,-0.162191451,0.877794623,0.450743854,0,0,0,-1,-1,48055.99926,unknown,2,2023-02-16T15:32:20.730-08:00,2023-02-14T17:43:35.488-08:00,10100,1.232782,0.6806797,1.921202,7490.928,17,23,2023-02-16T15:32:18.167-08:00,698283141.1,0,-26.32,100.6649,1,0.71,0
2023-02-16T15:32:21.255-08:00,1676590341,34.06376918,-118.4511013,124.9728,1,0.7186018,336.4453101,13,6.896362103,16.02688438,-9999,48056.52097,-0.213806152,1.219848633,0.597503662,48056.51472,-1.371891248,-2.790672046,-1.07211286,-0.069684587,-0.074780107,0.147348225,-0.05354549,0.3008793,0.091222018,XArbitraryZVertical,0.605187682,0.59858907,-0.294101634,-0.434675845,-0.164411053,0.878212988,0.449122012,0,0,0,-1,-1,48055.99926,unknown,2,2023-02-16T15:32:20.730-08:00,2023-02-14T17:43:35.488-08:00,10100,1.232782,0.6806797,1.921202,7490.928,17,23,2023-02-16T15:32:18.167-08:00,698283141.1,0,-26.32,100.6649,1,0.71,0
2023-02-16T15:32:21.289-08:00,1676590341,34.06376918,-118.4511013,124.9728,1,0.7186018,336.4453101,13,6.896362103,16.02688438,-9999,48056.55476,-0.132919312,1.04234314,0.669113159,48056.54475,-1.385716382,-2.805849072,-1.067572177,-0.370088041,-0.056612954,0.157911181,-0.01455836,0.273564935,0.233531773,XArbitraryZVertical,0.607562273,0.598774703,-0.294099991,-0.431094077,-0.15888834,0.876032293,0.45532611,0,0,0,-1,-1,48055.99926,unknown,2,2023-02-16T15:32:20.730-08:00,2023-02-14T17:43:35.488-08:00,10100,1.232782,0.6806797,1.921202,7490.928,17,23,2023-02-16T15:32:18.167-08:00,698283141.1,0,-26.32,100.6649,1,0.71,0
2023-02-16T15:32:21.324-08:00,1676590341,34.06376918,-118.4511013,124.9728,1,0.7186018,336.4453101,13,6.896362103,16.02688438,-9999,48056.58854,-0.191970825,0.765472412,0.506958008,48056.57477,-1.39777777,-2.814763614,-1.06206249,0.026494836,0.153023764,0.09074913,0.012312084,0.094792962,0.136321664,XArbitraryZVertical,0.610448964,0.598328014,-0.292276829,-0.428870488,-0.156370282,0.873361945,0.461288691,0,0,0,-1,-1,48055.99926,unknown,2,2023-02-16T15:32:20.730-08:00,2023-02-14T17:43:35.488-08:00,10100,1.232782,0.6806797,1.921202,7490.928,17,23,2023-02-16T15:32:18.167-08:00,698283141.1,0,-26.32,100.6649,1,0.71,0
2023-02-16T15:32:21.354-08:00,1676590341,34.06376918,-118.4511013,124.9728,1,0.7186018,336.4453101,13,6.896362103,16.02688438,-9999,48056.6223,-0.179672241,0.840957642,0.461700439,48056.6048,-1.403357108,-2.814265578,-1.067040002,0.158274069,0.189305201,0.224062636,-0.054058656,-0.153317571,0.004001319,XArbitraryZVertical,0.611650656,0.595338425,-0.292675643,-0.431041298,-0.155200392,0.875775516,0.457088739,0,0,0,-1,-1,48055.99926,unknown,2,2023-02-16T15:32:20.730-08:00,2023-02-14T17:43:35.488-08:00,10100,1.232782,0.6806797,1.921202,7490.928,17,23,2023-02-16T15:32:18.167-08:00,698283141.1,0,-26.32,100.6649,1,0.71,0
2023-02-16T15:32:21.389-08:00,1676590341,34.06376918,-118.4511013,124.9728,1,0.7186018,336.4453101,13,6.896362103,16.02688438,-9999,48056.65609,-0.113922119,0.945068359,0.437698364,48056.63483,-1.416953052,-2.821376059,-1.075446836,0.219043449,0.117677093,0.307146877,-0.006397739,0.043552279,0.025462687,XArbitraryZVertical,0.613709147,0.590719113,-0.294858095,-0.432978728,-0.149623394,0.879802644,0.451175988,0,0,0,-1,-1,48055.99926,unknown,2,2023-02-16T15:32:20.730-08:00,2023-02-14T17:43:35.488-08:00,10100,1.232782,0.6806797,1.921202,7490.928,17,23,2023-02-16T15:32:18.167-08:00,698283141.1,0,-26.32,100.6649,1,0.71,0
2023-02-16T15:32:21.424-08:00,1676590341,34.06376918,-118.4511013,124.9728,1,0.7186018,336.4453101,13,6.896362103,16.02688438,-9999,48056.68988,-0.155136108,0.769897461,0.444152832,48056.66485,-1.431910271,-2.8337529,-1.07744669,-0.270188004,-0.070196941,0.184325621,0.032517448,0.054398596,-0.020758659,XArbitraryZVertical,0.616060126,0.588326287,-0.296122969,-0.432033831,-0.143494606,0.880751491,0.45131579,0,0,0,-1,-1,48055.99926,unknown,2,2023-02-16T15:32:20.730-08:00,2023-02-14T17:43:35.488-08:00,10100,1.232782,0.6806797,1.921202,7490.928,17,23,2023-02-16T15:32:18.167-08:00,698283141.1,0,-26.32,100.6649,1,0.71,0
2023-02-16T15:32:21.459-08:00,1676590341,34.06376918,-118.4511013,124.9728,1,0.7186018,336.4453101,13,6.896362103,16.02688438,-9999,48056.72366,-0.141387939,0.729019165,0.470336914,48056.69488,-1.449433986,-2.853082449,-1.066472453,-0.444666386,-0.148394272,0.197942883,-0.017649561,-0.105603993,-0.019090772,XArbitraryZVertical,0.619667595,0.58960478,-0.294553767,-0.426164588,-0.137486503,0.875501394,0.463243455,0,0,0,-1,-1,48055.99926,unknown,2,2023-02-16T15:32:20.730-08:00,2023-02-14T17:43:35.488-08:00,10100,1.232782,0.6806797,1.921202,7490.928,17,23,2023-02-16T15:32:18.167-08:00,698283141.1,0,-26.32,100.6649,1,0.71,0
2023-02-16T15:32:21.489-08:00,1676590341,34.06376918,-118.4511013,124.9728,1,0.7186018,336.4453101,13,6.896362103,16.02688438,-9999,48056.75742,-0.084350586,0.638580322,0.414611816,48056.72491,-1.467058434,-2.871338756,-1.05964524,-0.171785712,-0.082043409,0.195406064,-0.019928232,-0.137379885,0.026239812,XArbitraryZVertical,0.623012184,0.589549446,-0.294156392,-0.421614963,-0.130599707,0.872182012,0.471425474,0,0,0,-1,-1,48055.99926,unknown,2,2023-02-16T15:32:20.730-08:00,2023-02-14T17:43:35.488-08:00,10100,1.232782,0.6806797,1.921202,7490.928,17,23,2023-02-16T15:32:18.167-08:00,698283141.1,0,-26.32,100.6649,1,0.71,0
2023-02-16T15:32:21.525-08:00,1676590341,34.06376918,-118.4511013,124.9728,1,0.7186018,336.4453101,13,6.896362103,16.02688438,-9999,48056.79121,-0.080032349,0.746627808,0.315200806,48056.78496,-1.502226996,-2.906010373,-1.028243351,-0.621479869,-0.052467011,0.145053074,0.034714513,-0.09992379,-0.158815742,XArbitraryZVertical,0.632353422,0.592587634,-0.287125466,-0.408078213,-0.120514661,0.856393337,0.502061903,0,0,0,-1,-1,48055.99926,unknown,2,2023-02-16T15:32:20.730-08:00,2023-02-14T17:43:35.488-08:00,10100,1.232782,0.6806797,1.921202,7490.928,17,23,2023-02-16T15:32:18.167-08:00,698283141.1,0,-26.32,100.6649,1,0.71,0
2023-02-16T15:32:21.559-08:00,1676590341,34.06376918,-118.4511013,124.9728,1,0.7186018,336.4453101,13,6.896362103,16.02688438,-9999,48056.825,0.039291382,0.633743286,0.131256104,48056.81499,-1.51584622,-2.91909681,-1.013361034,-0.657395184,-0.042809255,0.075080223,0.0792128,-0.142437816,-0.244883835,XArbitraryZVertical,0.636459859,0.594057703,-0.283534017,-0.402023411,-0.116734169,0.848614633,0.515971422,0,0,0,-1,-1,48055.99926,unknown,2,2023-02-16T15:32:20.730-08:00,2023-02-14T17:43:35.488-08:00,10100,1.232782,0.6806797,1.921202,7490.928,17,23,2023-02-16T15:32:18.167-08:00,698283141.1,0,-26.32,100.6649,1,0.71,0
2023-02-16T15:32:21.594-08:00,1676590341,34.06376918,-118.4511013,124.9728,1,0.7186018,336.4453101,13,6.896362103,16.02688438,-9999,48056.85878,-0.043197632,0.591094971,0.321640015,48056.84501,-1.530043694,-2.935141248,-0.989730614,-0.869834065,-0.224903762,0.082580909,0.157198712,-0.289918542,-0.338009536,XArbitraryZVertical,0.641525824,0.597556654,-0.277961949,-0.392565736,-0.112521,0.835878134,0.537258685,0,0,0,-1,-1,48055.99926,unknown,2,2023-02-16T15:32:20.730-08:00,2023-02-14T17:43:35.488-08:00,10100,1.232782,0.6806797,1.921202,7490.928,17,23,2023-02-16T15:32:18.167-08:00,698283141.1,0,-26.32,100.6649,1,0.71,0
2023-02-16T15:32:21.625-08:00,1676590341,34.06376918,-118.4511013,124.9728,1,0.7186018,336.4453101,13,6.896362103,16.02688438,-9999,48056.89254,-0.088729858,0.699401855,0.296646118,48056.87504,-1.540497219,-2.951926306,-0.970359146,-0.411639482,-0.294475406,0.074664138,0.001647055,-0.197799921,-0.240372181,XArbitraryZVertical,0.6448812,0.601301672,-0.274899988,-0.383398555,-0.10652072,0.82508868,0.554870903,0,0,0,-1,-1,48055.99926,unknown,2,2023-02-16T15:32:20.730-08:00,2023-02-14T17:43:35.488-08:00,10100,1.232782,0.6806797,1.921202,7490.928,17,23,2023-02-16T15:32:18.167-08:00,698283141.1,0,-26.32,100.6649,1,0.71,0
2023-02-16T15:32:21.659-08:00,1676590341,34.06376918,-118.4511013,124.9728,1,0.7186018,336.4453101,13,6.896362103,16.02688438,-9999,48056.92633,-0.02822876,0.647781372,0.355575562,48056.90507,-1.547925561,-2.969166416,-0.961255368,-0.433960855,-0.497189462,0.093575045,0.040988341,-0.114771664,-0.275931299,XArbitraryZVertical,0.645952387,0.603942448,-0.276042439,-0.3765629,-0.098224096,0.819910884,0.564001918,0,0,0,-1,-1,48055.99926,unknown,2,2023-02-16T15:32:20.730-08:00,2023-02-14T17:43:35.488-08:00,10100,1.232782,0.6806797,1.921202,7490.928,17,23,2023-02-16T15:32:18.167-08:00,698283141.1,0,-26.32,100.6649,1,0.71,0
2023-02-16T15:32:21.694-08:00,1676590341,34.06376918,-118.4511013,124.9728,1,0.7186018,336.4453101,13,6.896362103,16.02688438,-9999,48056.96012,-0.064346313,0.847518921,0.484375,48056.93509,-1.561673512,-2.997576003,-0.941769393,-0.766202867,-0.587538838,0.153482988,0.044661105,-0.128714561,-0.186378002,XArbitraryZVertical,0.64882905,0.608403198,-0.276291802,-0.364045638,-0.084440768,0.808600426,0.582267165,0,0,0,-1,-1,48055.99926,unknown,2,2023-02-16T15:32:20.730-08:00,2023-02-14T17:43:35.488-08:00,10100,1.232782,0.6806797,1.921202,7490.928,17,23,2023-02-16T15:32:18.167-08:00,698283141.1,0,-26.32,100.6649,1,0.71,0
2023-02-16T15:32:21.730-08:00,1676590341,34.06376918,-118.4511013,124.9728,1,0.7186018,336.4453101,13,6.896362103,16.02688438,-9999,48056.9939,0.199966431,0.99836731,0.376113892,48056.96512,-1.570381418,-3.026591653,-0.927275334,-0.171010628,-0.879769981,0.071517475,0.004504062,0.047530711,-0.111677468,XArbitraryZVertical,0.649459051,0.613375154,-0.279425241,-0.351987603,-0.068850398,0.799988091,0.596052289,0,0,0,-1,-1,48055.99926,unknown,2,2023-02-16T15:32:20.730-08:00,2023-02-14T17:43:35.488-08:00,10100,1.232782,0.6806797,1.921202,7490.928,17,23,2023-02-16T15:32:18.167-08:00,698283141.1,0,-26.32,100.6649,1,0.71,0
2023-02-16T15:32:21.759-08:00,1676590341,34.06376918,-118.4511013,124.9728,1,0.7186018,336.4453101,13,6.896362103,16.02688438,-9999,48057.02766,0.18951416,0.954101563,0.61390686,48056.99515,-1.570880671,-3.061337105,-0.934522238,0.712110639,-1.439421535,0.05116424,0.209669977,0.201910257,-0.229985476,XArbitraryZVertical,0.643604276,0.617995628,-0.292913972,-0.343593254,-0.047636889,0.804315269,0.592290103,0,0,0,-1,-1,48055.99926,unknown,2,2023-02-16T15:32:20.730-08:00,2023-02-14T17:43:35.488-08:00,10100,1.232782,0.6806797,1.921202,7490.928,17,23,2023-02-16T15:32:18.167-08:00,698283141.1,0,-26.32,100.6649,1,0.71,0
2023-02-16T15:32:21.795-08:00,1676590341,34.06376918,-118.4511013,124.9728,1,0.7186018,336.4453101,13,6.896362103,16.02688438,-9999,48057.06145,0.359771729,0.986465454,0.344665527,48057.0552,-1.614155713,3.07509692,-1.022002718,2.486139297,-2.187666893,1.054284334,0.260015249,0.044214845,-0.068097591,XArbitraryZVertical,0.618411502,0.614670563,-0.358988944,-0.332977792,0.034662493,0.85315448,0.520505369,0,0,0,-1,-1,48055.99926,unknown,2,2023-02-16T15:32:20.730-08:00,2023-02-14T17:43:35.488-08:00,10100,1.232782,0.6806797,1.921202,7490.928,17,23,2023-02-16T15:32:18.167-08:00,698283141.1,0,-26.32,100.6649,1,0.71,0
2023-02-16T15:32:21.829-08:00,1676590341,34.06376918,-118.4511013,124.9728,1,0.7186018,336.4453101,13,6.896362103,16.02688438,-9999,48057.09524,0.394866943,1.006561279,0.591247559,48057.08523,-1.729390783,2.901404394,-1.108285091,3.281749725,-2.59988308,1.734120965,0.293987513,0.288765669,-0.043358088,XArbitraryZVertical,0.601463346,0.59576485,-0.416504348,-0.331406325,0.10614372,0.894934833,0.433387816,0,0,0,-1,-1,48055.99926,unknown,2,2023-02-16T15:32:20.730-08:00,2023-02-14T17:43:35.488-08:00,10100,1.232782,0.6806797,1.921202,7490.928,17,23,2023-02-16T15:32:18.167-08:00,698283141.1,0,-26.32,100.6649,1,0.71,0
2023-02-16T15:32:21.865-08:00,1676590341,34.06376918,-118.4511013,124.9728,1,0.7186018,336.4453101,13,6.896362103,16.02688438,-9999,48057.12902,0.331573486,1.000961304,0.874313354,48057.11525,-1.979684503,2.605007632,-1.183415792,4.281149387,-1.752664208,2.662699938,0.184113115,0.073640525,0.471469313,XArbitraryZVertical,0.58785092,0.562821374,-0.479091704,-0.328838197,0.193114668,0.925901771,0.324673206,0,0,0,-1,-1,48055.99926,unknown,2,2023-02-16T15:32:20.730-08:00,2023-02-14T17:43:35.488-08:00,10100,1.232782,0.6806797,1.921202,7490.928,17,23,2023-02-16T15:32:18.167-08:00,698283141.1,0,-26.32,100.6649,1,0.71,0
2023-02-16T15:32:21.895-08:00,1676590341,34.06376918,-118.4511013,124.9728,1,0.7186018,336.4453101,13,6.896362103,16.02688438,-9999,48057.16278,0.260299683,0.720001221,0.580718994,48057.14528,-2.486564364,2.09137185,-1.226788865,5.766635895,-0.835615396,3.668790579,0.006958961,-0.056904435,0.551048279,XArbitraryZVertical,0.577088052,0.500842391,-0.548360398,-0.339745725,0.292586356,0.941410661,0.167747438,0,0,0,-1,-1,48055.99926,unknown,2,2023-02-16T15:32:20.730-08:00,2023-02-14T17:43:35.488-08:00,10100,1.232782,0.6806797,1.921202,7490.928,17,23,2023-02-16T15:32:18.167-08:00,698283141.1,0,-26.32,100.6649,1,0.71,0
2023-02-16T15:32:21.931-08:00,1676590341,34.06376918,-118.4511013,124.9728,1,0.7186018,336.4453101,13,6.896362103,16.02688438,-9999,48057.19657,0.52784729,1.008987427,0.546569824,48057.17531,-2.97079871,1.632897835,-1.155191877,3.831538439,0.364839494,4.008160114,-0.119776994,-0.16774106,0.595838308,XArbitraryZVertical,0.576386972,0.424625167,-0.605567894,-0.347504132,0.40296489,0.914872468,0.025056947,0,0,0,-1,-1,48055.99926,unknown,2,2023-02-16T15:32:20.730-08:00,2023-02-14T17:43:35.488-08:00,10100,1.232782,0.6806797,1.921202,7490.928,17,23,2023-02-16T15:32:18.167-08:00,698283141.1,0,-26.32,100.6649,1,0.71,0
2023-02-16T15:32:21.964-08:00,1676590341,34.06376918,-118.4511013,124.9728,1,0.7186018,336.4453101,13,6.896362103,16.02688438,-9999,48057.23036,0.757141113,0.992889404,0.029724121,48057.20533,3.046224158,1.42936899,-1.025838808,5.249144554,1.581916213,4.079437256,0.057747364,0.227110684,0.60325098,XArbitraryZVertical,0.588060136,0.343002467,-0.642026624,-0.352613496,0.513205945,0.855149329,-0.07306917,0,0,0,-1,-1,48055.99926,unknown,2,2023-02-16T15:32:20.730-08:00,2023-02-14T17:43:35.488-08:00,10100,1.232782,0.6806797,1.921202,7490.928,17,23,2023-02-16T15:32:18.167-08:00,698283141.1,0,-26.32,100.6649,1,0.71,0
2023-02-16T15:32:22.000-08:00,1676590341,34.06376918,-118.4511013,124.9728,1,0.7186018,336.4453101,13,6.896362103,16.02688438,-9999,48057.26414,0.664245605,0.416793823,-0.233520508,48057.23536,2.791325634,1.275000163,-0.869487791,6.418275833,1.883224487,3.747163057,0.139944851,0.228890717,0.217806071,XArbitraryZVertical,0.590537155,0.239217249,-0.674007548,-0.373837686,0.617196143,0.763998568,-0.18808195,0,0,0,-1,-1,48055.99926,unknown,2,2023-02-16T15:32:20.730-08:00,2023-02-14T17:43:35.488-08:00,10100,1.232782,0.6806797,1.921202,7490.928,17,23,2023-02-16T15:32:18.167-08:00,698283141.1,0,-26.32,100.6649,1,0.71,0
2023-02-16T15:32:22.030-08:00,1676590341,34.06376918,-118.4511013,124.9728,1,0.7186018,336.4453101,13,6.896362103,16.02688438,-9999,48057.2979,0.896209717,0.860733032,-0.498306274,48057.26539,2.596689649,1.199722469,-0.713027391,4.975975513,2.277492762,2.870581865,-0.045007527,-0.192029536,0.04087913,XArbitraryZVertical,0.587035898,0.135092708,-0.691961426,-0.397904757,0.704904318,0.654126644,-0.274277627,0,0,0,-1,-1,48055.99926,unknown,2,2023-02-16T15:32:20.730-08:00,2023-02-14T17:43:35.488-08:00,10100,1.232782,0.6806797,1.921202,7490.928,17,23,2023-02-16T15:32:18.167-08:00,698283141.1,0,-26.32,100.6649,1,0.71,0
2023-02-16T15:32:22.065-08:00,1676590341,34.06376918,-118.4511013,124.9728,1,0.7186018,336.4453101,13,6.896362103,16.02688438,-9999,48057.33169,0.947891235,0.865036011,-0.746459961,48057.32544,2.391332185,1.185395864,-0.536473061,3.119043827,1.09822607,0.55712086,0.152535737,0.469681382,-0.321367234,XArbitraryZVertical,0.581712248,0.007191175,-0.68991585,-0.430784382,0.796469331,0.511107743,-0.323118299,0,0,0,-1,-1,48055.99926,unknown,2,2023-02-16T15:32:20.730-08:00,2023-02-14T17:43:35.488-08:00,10100,1.232782,0.6806797,1.921202,7490.928,17,23,2023-02-16T15:32:18.167-08:00,698283141.1,0,-26.32,100.6649,1,0.71,0
2023-02-16T15:32:22.099-08:00,1676590341,34.06376918,-118.4511013,124.9728,1,0.7186018,336.4453101,13,6.896362103,16.02688438,-9999,48057.36548,0.875244141,0.375396729,-1.032791138,48057.35547,2.314634489,1.165018484,-0.511156595,1.43186748,0.051197004,-0.357385397,0.222647548,0.407435417,-0.533239365,XArbitraryZVertical,0.572222939,-0.020534742,-0.683991817,-0.451989502,0.801354587,0.489186347,-0.344278455,0,0,0,-1,-1,48055.99926,unknown,2,2023-02-16T15:32:20.730-08:00,2023-02-14T17:43:35.488-08:00,10100,1.232782,0.6806797,1.921202,7490.928,17,23,2023-02-16T15:32:18.167-08:00,698283141.1,0,-26.32,100.6649,1,0.71,0
2023-02-16T15:32:22.134-08:00,1676590341,34.06376918,-118.4511013,124.9728,1,0.7186018,336.4453101,13,6.896362103,16.02688438,-9999,48057.39926,0.750976563,0.835098267,-1.041824341,48057.38549,2.304852019,1.147870354,-0.531664777,-0.802862287,-0.745135427,-1.058424115,-0.032920718,0.069736779,-0.852980375,XArbitraryZVertical,0.5683181,-0.01124296,-0.682439354,-0.459526362,0.786018133,0.506969035,-0.353776276,0,0,0,-1,-1,48055.99926,unknown,2,2023-02-16T15:32:20.730-08:00,2023-02-14T17:43:35.488-08:00,10100,1.232782,0.6806797,1.921202,7490.928,17,23,2023-02-16T15:32:18.167-08:00,698283141.1,0,-26.32,100.6649,1,0.71,0
2023-02-16T15:32:22.165-08:00,1676590341,34.06376918,-118.4511013,124.9728,1,0.7186018,336.4453101,13,6.896362103,16.02688438,-9999,48057.43302,0.744918823,0.732315063,-0.4012146,48057.41552,2.302837209,1.125319871,-0.569293192,-0.115611658,-0.498586565,-1.372279525,-0.079370201,0.219218135,-0.448457003,XArbitraryZVertical,0.564325831,0.008472263,-0.680457484,-0.467377881,0.76007998,0.53903687,-0.362929165,0,0,0,-1,-1,48055.99926,unknown,2,2023-02-16T15:32:20.730-08:00,2023-02-14T17:43:35.488-08:00,10100,1.232782,0.6806797,1.921202,7490.928,17,23,2023-02-16T15:32:18.167-08:00,698283141.1,0,-26.32,100.6649,1,0.71,0
2023-02-16T15:32:22.200-08:00,1676590342,34.06377458,-118.4511064,125.5147,0.87,1.02,336.0937479,14.35411724,7.09627238,15.93937739,-9999,48057.46681,0.699752808,0.56427002,-0.304199219,48057.44555,2.281633033,1.110400542,-0.609503428,-0.618046284,0.138776511,-1.59164381,0.03732276,-0.048870325,-0.024099112,XArbitraryZVertical,0.563346523,0.022172219,-0.670917677,-0.48168302,0.734558344,0.572460353,-0.364298165,0,0,0,-1,-1,48055.99926,unknown,2,2023-02-16T15:32:20.730-08:00,2023-02-14T17:43:35.488-08:00,10100,1.232782,0.6806797,1.921202,7490.928,17,23,2023-02-16T15:32:18.167-08:00,698283141.1,0,-26.32,100.6649,1,0.71,0
2023-02-16T15:32:22.235-08:00,1676590342,34.06377458,-118.4511064,125.5147,0.87,1.02,336.0937479,14.35411724,7.09627238,15.93937739,-9999,48057.5006,0.756027222,0.506134033,-0.844955444,48057.47557,2.285167029,1.108310961,-0.661705306,-1.053841233,-0.31369701,-1.385917544,-0.011682272,-0.131461501,-0.110624552,XArbitraryZVertical,0.567454568,0.044630975,-0.66062926,-0.489461284,0.706063926,0.614463151,-0.352006793,0,0,0,-1,-1,48055.99926,unknown,2,2023-02-16T15:32:20.730-08:00,2023-02-14T17:43:35.488-08:00,10100,1.232782,0.6806797,1.921202,7490.928,17,23,2023-02-16T15:32:18.167-08:00,698283141.1,0,-26.32,100.6649,1,0.71,0
2023-02-16T15:32:22.269-08:00,1676590342,34.06377458,-118.4511064,125.5147,0.87,1.02,336.0937479,14.35411724,7.09627238,15.93937739,-9999,48057.53438,0.747528076,0.439575195,-0.66986084,48057.5056,2.279404678,1.09077085,-0.697518118,-0.031887781,-0.489314497,-0.739869177,0.076209009,-0.1361835,-0.491012752,XArbitraryZVertical,0.564996058,0.061709777,-0.655873487,-0.496790939,0.679818153,0.642317474,-0.353942722,0,0,0,-1,-1,48055.99926,unknown,2,2023-02-16T15:32:20.730-08:00,2023-02-14T17:43:35.488-08:00,10100,1.232782,0.6806797,1.921202,7490.928,17,23,2023-02-16T15:32:18.167-08:00,698283141.1,0,-26.32,100.6649,1,0.71,0
2023-02-16T15:32:22.300-08:00,1676590342,34.06377458,-118.4511064,125.5147,0.87,1.02,336.0937479,14.35411724,7.09627238,15.93937739,-9999,48057.56814,0.737075806,0.679000854,-0.117507935,48057.53563,2.283854528,1.078409008,-0.718129731,-0.954755545,-0.63238281,-0.519909084,0.128593326,-0.233966231,-0.376040995,XArbitraryZVertical,0.562567665,0.074333858,-0.655604591,-0.498171366,0.663581908,0.657977462,-0.355984211,0,0,0,-1,-1,48055.99926,unknown,2,2023-02-16T15:32:20.730-08:00,2023-02-14T17:43:35.488-08:00,10100,1.232782,0.6806797,1.921202,7490.928,17,23,2023-02-16T15:32:18.167-08:00,698283141.1,0,-26.32,100.6649,1,0.71,0
2023-02-16T15:32:22.335-08:00,1676590342,34.06377458,-118.4511064,125.5147,0.87,1.02,336.0937479,14.35411724,7.09627238,15.93937739,-9999,48057.60193,0.556289673,0.920593262,-0.113632202,48057.59568,2.357736641,1.090131054,-0.771850291,-0.737037063,-0.374595314,-0.070302479,-0.036328673,0.24685818,0.196104914,XArbitraryZVertical,0.566863947,0.11398892,-0.657586135,-0.482961852,0.63541913,0.69746238,-0.331343591,0,0,0,-1,-1,48055.99926,unknown,2,2023-02-16T15:32:20.730-08:00,2023-02-14T17:43:35.488-08:00,10100,1.232782,0.6806797,1.921202,7490.928,17,23,2023-02-16T15:32:18.167-08:00,698283141.1,0,-26.32,100.6649,1,0.71,0
2023-02-16T15:32:22.371-08:00,1676590342,34.06377458,-118.4511064,125.5147,0.87,1.02,336.0937479,14.35411724,7.09627238,15.93937739,-9999,48057.63572,0.837661743,0.917327881,-0.03616333,48057.62571,2.385134411,1.107499809,-0.782426655,-0.863116562,0.027927231,-0.157096431,0.081331134,-0.028839827,0.325137198,XArbitraryZVertical,0.571553543,0.121880671,-0.656672468,-0.476710479,0.634443343,0.705002487,-0.316943288,0,0,0,-1,-1,48055.99926,unknown,2,2023-02-16T15:32:20.730-08:00,2023-02-14T17:43:35.488-08:00,10100,1.232782,0.6806797,1.921202,7490.928,17,23,2023-02-16T15:32:18.167-08:00,698283141.1,0,-26.32,100.6649,1,0.71,0
2023-02-16T15:32:22.405-08:00,1676590342,34.06377458,-118.4511064,125.5147,0.87,1.02,336.0937479,14.35411724,7.09627238,15.93937739,-9999,48057.6695,0.498703003,0.564987183,-0.041793823,48057.65573,2.400902974,1.116427408,-0.792937975,-0.253487647,0.054605983,-0.129706219,0.027420282,0.048705518,0.131834328,XArbitraryZVertical,0.574011212,0.128501211,-0.655331982,-0.473855009,0.630553901,0.712418079,-0.307997137,0,0,0,-1,-1,48055.99926,unknown,2,2023-02-16T15:32:20.730-08:00,2023-02-14T17:43:35.488-08:00,10100,1.232782,0.6806797,1.921202,7490.928,17,23,2023-02-16T15:32:18.167-08:00,698283141.1,0,-26.32,100.6649,1,0.71,0
2023-02-16T15:32:22.435-08:00,1676590342,34.06377458,-118.4511064,125.5147,0.87,1.02,336.0937479,14.35411724,7.09627238,15.93937739,-9999,48057.70326,0.414627075,0.478881836,0.08241272,48057.68576,2.408690581,1.130761899,-0.794597255,-0.245961085,0.410459489,0.233279005,-0.151427031,-0.24788332,0.320929825,XArbitraryZVertical,0.578272944,0.128018825,-0.652645092,-0.472510258,0.633833587,0.713581502,-0.298423171,0,0,0,-1,-1,48055.99926,unknown,2,2023-02-16T15:32:20.730-08:00,2023-02-14T17:43:35.488-08:00,10100,1.232782,0.6806797,1.921202,7490.928,17,23,2023-02-16T15:32:18.167-08:00,698283141.1,0,-26.32,100.6649,1,0.71,0
2023-02-16T15:32:22.470-08:00,1676590342,34.06377458,-118.4511064,125.5147,0.87,1.02,336.0937479,14.35411724,7.09627238,15.93937739,-9999,48057.73705,0.453048706,0.577697754,0.03024292,48057.71579,2.430193151,1.163103757,-0.788100238,-0.313666135,0.706982732,0.556918979,-0.187586188,-0.134872496,0.349259943,XArbitraryZVertical,0.587195187,0.124096779,-0.649827475,-0.466396755,0.647394478,0.709014833,-0.279603601,0,0,0,-1,-1,48055.99926,unknown,2,2023-02-16T15:32:20.730-08:00,2023-02-14T17:43:35.488-08:00,10100,1.232782,0.6806797,1.921202,7490.928,17,23,2023-02-16T15:32:18.167-08:00,698283141.1,0,-26.32,100.6649,1,0.71,0
2023-02-16T15:32:22.505-08:00,1676590342,34.06377458,-118.4511064,125.5147,0.87,1.02,336.0937479,14.35411724,7.09627238,15.93937739,-9999,48057.77084,0.427429199,0.12449646,-0.123687744,48057.74581,2.441556284,1.195779489,-0.767191415,0.09901537,1.007535458,0.856972218,-0.266314924,-0.192193568,0.271749139,XArbitraryZVertical,0.596415565,0.111578745,-0.647742872,-0.460725324,0.669833541,0.694116175,-0.263677329,0,0,0,-1,-1,48055.99926,unknown,2,2023-02-16T15:32:20.730-08:00,2023-02-14T17:43:35.488-08:00,10100,1.232782,0.6806797,1.921202,7490.928,17,23,2023-02-16T15:32:18.167-08:00,698283141.1,0,-26.32,100.6649,1,0.71,0
2023-02-16T15:32:22.540-08:00,1676590342,34.06377458,-118.4511064,125.5147,0.87,1.02,336.0937479,14.35411724,7.09627238,15.93937739,-9999,48057.80462,0.427780151,0.562942505,-0.154418945,48057.77584,2.474427009,1.249984405,-0.744344649,-1.222523093,1.071359515,1.134967566,-0.270575702,-0.552993596,0.108252779,XArbitraryZVertical,0.611549787,0.100182778,-0.64413962,-0.448390747,0.698004842,0.677489936,-0.231940538,0,0,0,-1,-1,48055.99926,unknown,2,2023-02-16T15:32:20.730-08:00,2023-02-14T17:43:35.488-08:00,10100,1.232782,0.6806797,1.921202,7490.928,17,23,2023-02-16T15:32:18.167-08:00,698283141.1,0,-26.32,100.6649,1,0.71,0
2023-02-16T15:32:22.570-08:00,1676590342,34.06377458,-118.4511064,125.5147,0.87,1.02,336.0937479,14.35411724,7.09627238,15.93937739,-9999,48057.83838,0.338363647,0.695205688,0.043579102,48057.80587,2.540797298,1.326123128,-0.718074019,-1.013153672,1.044222951,1.460461974,-0.324807048,-0.133368909,0.029317394,XArbitraryZVertical,0.632417862,0.093997787,-0.640818096,-0.424928321,0.730645001,0.6579355,-0.182424128,0,0,0,-1,-1,48055.99926,unknown,2,2023-02-16T15:32:20.730-08:00,2023-02-14T17:43:35.488-08:00,10100,1.232782,0.6806797,1.921202,7490.928,17,23,2023-02-16T15:32:18.167-08:00,698283141.1,0,-26.32,100.6649,1,0.71,0
2023-02-16T15:32:22.605-08:00,1676590342,34.06377458,-118.4511064,125.5147,0.87,1.02,336.0937479,14.35411724,7.09627238,15.93937739,-9999,48057.87217,0.593109131,0.778411865,-0.162704468,48057.86592,2.60268899,1.43143397,-0.642378159,-0.301939279,1.162081838,0.935599089,-0.265398979,0.291035414,0.061570711,XArbitraryZVertical,0.6635555,0.0638958,-0.635052476,-0.390281514,0.792910397,0.599101245,-0.111222848,0,0,0,-1,-1,48055.99926,unknown,2,2023-02-16T15:32:20.730-08:00,2023-02-14T17:43:35.488-08:00,10100,1.232782,0.6806797,1.921202,7490.928,17,23,2023-02-16T15:32:18.167-08:00,698283141.1,0,-26.32,100.6649,1,0.71,0
2023-02-16T15:32:22.640-08:00,1676590342,34.06377458,-118.4511064,125.5147,0.87,1.02,336.0937479,14.35411724,7.09627238,15.93937739,-9999,48057.90596,0.747344971,0.656448364,-0.438522339,48057.89595,2.623223471,1.472158535,-0.625137777,-0.695392013,0.696276009,0.402989656,-0.064356744,0.094829321,-0.40362078,XArbitraryZVertical,0.675925577,0.056547401,-0.628730688,-0.380295438,0.806940854,0.585209012,-0.079854012,0,0,0,-1,-1,48055.99926,unknown,2,2023-02-16T15:32:20.730-08:00,2023-02-14T17:43:35.488-08:00,10100,1.232782,0.6806797,1.921202,7490.928,17,23,2023-02-16T15:32:18.167-08:00,698283141.1,0,-26.32,100.6649,1,0.71,0
2023-02-16T15:32:22.675-08:00,1676590342,34.06377458,-118.4511064,125.5147,0.87,1.02,336.0937479,14.35411724,7.09627238,15.93937739,-9999,48057.93974,0.874771118,0.53213501,-0.182235718,48057.92597,2.648944334,1.500253139,-0.620025568,-0.500373602,-0.210659102,0.04507938,0.071522415,-0.030625761,-0.303841174,XArbitraryZVertical,0.684059055,0.058144226,-0.624983165,-0.371589003,0.811839283,0.581055999,-0.057364918,0,0,0,-1,-1,48055.99926,unknown,2,2023-02-16T15:32:20.730-08:00,2023-02-14T17:43:35.488-08:00,10100,1.232782,0.6806797,1.921202,7490.928,17,23,2023-02-16T15:32:18.167-08:00,698283141.1,0,-26.32,100.6649,1,0.71,0
2023-02-16T15:32:22.705-08:00,1676590342,34.06377458,-118.4511064,125.5147,0.87,1.02,336.0937479,14.35411724,7.09627238,15.93937739,-9999,48057.9735,0.986190796,0.78175354,-0.250198364,48057.956,2.67630893,1.51917031,-0.625004269,-0.529377162,0.220671251,-0.23891066,0.229106069,0.079266846,-0.105094135,XArbitraryZVertical,0.689013162,0.065854626,-0.622604325,-0.365085903,0.809879959,0.58510071,-0.04184806,0,0,0,-1,-1,48055.99926,unknown,2,2023-02-16T15:32:20.730-08:00,2023-02-14T17:43:35.488-08:00,10100,1.232782,0.6806797,1.921202,7490.928,17,23,2023-02-16T15:32:18.167-08:00,698283141.1,0,-26.32,100.6649,1,0.71,0
2023-02-16T15:32:22.740-08:00,1676590342,34.06377458,-118.4511064,125.5147,0.87,1.02,336.0937479,14.35411724,7.09627238,15.93937739,-9999,48058.00729,1.040237427,0.506561279,-0.344421387,48057.98603,2.67912168,1.52676285,-0.632248074,0.023358377,0.13515161,-0.169917241,0.215504289,0.089093924,-0.262326002,XArbitraryZVertical,0.6910972,0.068040235,-0.619164223,-0.366593595,0.805919111,0.590959787,-0.035510372,0,0,0,-1,-1,48055.99926,unknown,2,2023-02-16T15:32:20.730-08:00,2023-02-14T17:43:35.488-08:00,10100,1.232782,0.6806797,1.921202,7490.928,17,23,2023-02-16T15:32:18.167-08:00,698283141.1,0,-26.32,100.6649,1,0.71,0
2023-02-16T15:32:22.775-08:00,1676590342,34.06377458,-118.4511064,125.5147,0.87,1.02,336.0937479,14.35411724,7.09627238,15.93937739,-9999,48058.04108,0.940338135,0.576568604,-0.205459595,48058.01605,2.688143321,1.533435419,-0.636744526,-0.421117812,-0.073259838,-0.061227955,0.243492007,-0.094947398,-0.334255934,XArbitraryZVertical,0.692722289,0.071551215,-0.617678036,-0.365362758,0.803474367,0.594581068,-0.030032506,0,0,0,-1,-1,48055.99926,unknown,2,2023-02-16T15:32:20.730-08:00,2023-02-14T17:43:35.488-08:00,10100,1.232782,0.6806797,1.921202,7490.928,17,23,2023-02-16T15:32:18.167-08:00,698283141.1,0,-26.32,100.6649,1,0.71,0
2023-02-16T15:32:22.810-08:00,1676590342,34.06377458,-118.4511064,125.5147,0.87,1.02,336.0937479,14.35411724,7.09627238,15.93937739,-9999,48058.07486,0.960510254,0.885238647,0.009384155,48058.04608,2.710050968,1.540752448,-0.637721844,-0.648094416,-0.241602108,0.026375465,0.137246609,-0.018798113,-0.181324422,XArbitraryZVertical,0.694133815,0.078170487,-0.618931039,-0.359154317,0.803091407,0.595366597,-0.024135243,0,0,0,-1,-1,48055.99926,unknown,2,2023-02-16T15:32:20.730-08:00,2023-02-14T17:43:35.488-08:00,10100,1.232782,0.6806797,1.921202,7490.928,17,23,2023-02-16T15:32:18.167-08:00,698283141.1,0,-26.32,100.6649,1,0.71,0
2023-02-16T15:32:22.841-08:00,1676590342,34.06377458,-118.4511064,125.5147,0.87,1.02,336.0937479,14.35411724,7.09627238,15.93937739,-9999,48058.10862,1.206954956,1.198425293,-0.017715454,48058.07611,2.728038049,1.543315983,-0.635308806,-0.351896018,-0.301386476,0.155172914,0.135509431,0.225238442,0.030279219,XArbitraryZVertical,0.694288615,0.083098772,-0.621675704,-0.352954888,0.804584503,0.593426108,-0.022115825,0,0,0,-1,-1,48055.99926,unknown,2,2023-02-16T15:32:20.730-08:00,2023-02-14T17:43:35.488-08:00,10100,1.232782,0.6806797,1.921202,7490.928,17,23,2023-02-16T15:32:18.167-08:00,698283141.1,0,-26.32,100.6649,1,0.71,0
2023-02-16T15:32:22.876-08:00,1676590342,34.06377458,-118.4511064,125.5147,0.87,1.02,336.0937479,14.35411724,7.09627238,15.93937739,-9999,48058.14241,1.214797974,1.139938354,0.148483276,48058.13616,2.73677546,1.520295347,-0.636517359,0.148471013,-0.531022072,-0.251967818,0.427063823,0.600120604,0.07538408,XArbitraryZVertical,0.6866559,0.090590289,-0.63094394,-0.349580937,0.803145468,0.594398439,-0.040594149,0,0,0,-1,-1,48055.99926,unknown,2,2023-02-16T15:32:20.730-08:00,2023-02-14T17:43:35.488-08:00,10100,1.232782,0.6806797,1.921202,7490.928,17,23,2023-02-16T15:32:18.167-08:00,698283141.1,0,-26.32,100.6649,1,0.71,0
2023-02-16T15:32:22.910-08:00,1676590342,34.06377458,-118.4511064,125.5147,0.87,1.02,336.0937479,14.35411724,7.09627238,15.93937739,-9999,48058.1762,1.145050049,0.558822632,0.172409058,48058.16619,2.711726848,1.49310714,-0.646689495,1.151682138,-0.307692319,-0.502248883,0.382989466,0.303473413,0.341557324,XArbitraryZVertical,0.678847934,0.09052874,-0.633958041,-0.359259257,0.795675635,0.602547646,-0.061940059,0,0,0,-1,-1,48055.99926,unknown,2,2023-02-16T15:32:20.730-08:00,2023-02-14T17:43:35.488-08:00,10100,1.232782,0.6806797,1.921202,7490.928,17,23,2023-02-16T15:32:18.167-08:00,698283141.1,0,-26.32,100.6649,1,0.71,0
2023-02-16T15:32:22.945-08:00,1676590342,34.06377458,-118.4511064,125.5147,0.87,1.02,336.0937479,14.35411724,7.09627238,15.93937739,-9999,48058.20998,1.129165649,0.127471924,0.032196045,48058.19621,2.657636499,1.451608407,-0.659059233,1.47211206,-0.331532151,-0.594854295,0.351453543,-0.37360388,0.175302029,XArbitraryZVertical,0.667726173,0.084499155,-0.635635184,-0.378113164,0.784960032,0.612373412,-0.094003305,0,0,0,-1,-1,48055.99926,unknown,2,2023-02-16T15:32:20.730-08:00,2023-02-14T17:43:35.488-08:00,10100,1.232782,0.6806797,1.921202,7490.928,17,23,2023-02-16T15:32:18.167-08:00,698283141.1,0,-26.32,100.6649,1,0.71,0
2023-02-16T15:32:22.976-08:00,1676590342,34.06377458,-118.4511064,125.5147,0.87,1.02,336.0937479,14.35411724,7.09627238,15.93937739,-9999,48058.24374,1.034118652,0.690673828,-0.168075562,48058.22624,2.617095096,1.411561432,-0.668507993,0.677383304,-0.610414445,-0.325743079,0.27831167,-0.619068205,0.223369658,XArbitraryZVertical,0.656513853,0.082302417,-0.63923284,-0.391914818,0.774819374,0.619815826,-0.124431744,0,0,0,-1,-1,48055.99926,unknown,2,2023-02-16T15:32:20.730-08:00,2023-02-14T17:43:35.488-08:00,10100,1.232782,0.6806797,1.921202,7490.928,17,23,2023-02-16T15:32:18.167-08:00,698283141.1,0,-26.32,100.6649,1,0.71,0
2023-02-16T15:32:23.010-08:00,1676590342,34.06377458,-118.4511064,125.5147,0.87,1.02,336.0937479,14.35411724,7.09627238,15.93937739,-9999,48058.27753,0.867416382,0.642074585,-0.0337677,48058.25627,2.600665954,1.380747601,-0.67804206,0.42257005,-0.851379573,-0.370604575,0.401174486,0.050052941,-0.035679385,XArbitraryZVertical,0.647252064,0.086627194,-0.644105381,-0.398357397,0.764779925,0.627269387,-0.147120997,0,0,0,-1,-1,48055.99926,unknown,2,2023-02-16T15:32:20.730-08:00,2023-02-14T17:43:35.488-08:00,10100,1.232782,0.6806797,1.921202,7490.928,17,23,2023-02-16T15:32:18.167-08:00,698283141.1,0,-26.32,100.6649,1,0.71,0
2023-02-16T15:32:23.045-08:00,1676590342,34.06377458,-118.4511064,125.5147,0.87,1.02,336.0937479,14.35411724,7.09627238,15.93937739,-9999,48058.31132,0.671218872,0.378677368,-0.086502075,48058.28629,2.58408166,1.344993208,-0.69313672,0.313213915,-0.785927415,-0.728310108,0.093299627,-0.035010457,0.13616915,XArbitraryZVertical,0.636400603,0.094241267,-0.649134241,-0.405878593,0.749717832,0.638953209,-0.172225714,0,0,0,-1,-1,48055.99926,unknown,2,2023-02-16T15:32:20.730-08:00,2023-02-14T17:43:35.488-08:00,10100,1.232782,0.6806797,1.921202,7490.928,17,23,2023-02-16T15:32:18.167-08:00,698283141.1,0,-26.32,100.6649,1,0.71,0
2023-02-16T15:32:23.080-08:00,1676590342,34.06377458,-118.4511064,125.5147,0.87,1.02,336.0937479,14.35411724,7.09627238,15.93937739,-9999,48058.3451,0.634506226,0.116973877,-0.470108032,48058.31632,2.566114124,1.309310285,-0.71606807,-0.084592856,-0.879454434,-0.888388813,-0.057529628,-0.277746201,0.108520687,XArbitraryZVertical,0.6257174,0.104720199,-0.651858713,-0.415441529,0.728748441,0.656423509,-0.195022836,0,0,0,-1,-1,48055.99926,unknown,2,2023-02-16T15:32:20.730-08:00,2023-02-14T17:43:35.488-08:00,10100,1.232782,0.6806797,1.921202,7490.928,17,23,2023-02-16T15:32:18.167-08:00,698283141.1,0,-26.32,100.6649,1,0.71,0
2023-02-16T15:32:23.111-08:00,1676590342,34.06377458,-118.4511064,125.5147,0.87,1.02,336.0937479,14.35411724,7.09627238,15.93937739,-9999,48058.37886,0.299209595,-0.263397217,-0.435455322,48058.34635,2.559802507,1.272002475,-0.738417295,0.132709116,-1.407447934,-0.572425246,-0.034312963,-0.457145393,-0.234193921,XArbitraryZVertical,0.613949572,0.119240617,-0.657266582,-0.420533353,0.706767738,0.673118293,-0.217695192,0,0,0,-1,-1,48055.99926,unknown,2,2023-02-16T15:32:20.730-08:00,2023-02-14T17:43:35.488-08:00,10100,1.232782,0.6806797,1.921202,7490.928,17,23,2023-02-16T15:32:18.167-08:00,698283141.1,0,-26.32,100.6649,1,0.71,0
2023-02-16T15:32:23.146-08:00,1676590342,34.06377458,-118.4511064,125.5147,0.87,1.02,336.0937479,14.35411724,7.09627238,15.93937739,-9999,48058.41265,0.18838501,-0.516281128,-0.104400635,48058.4064,2.634800455,1.229559298,-0.767238769,-2.665509224,-1.819250226,0.499728978,-0.414928496,-1.216489196,-0.018979192,XArbitraryZVertical,0.594425365,0.161900648,-0.679215971,-0.398888815,0.678325713,0.694150269,-0.240893334,0,0,0,-1,-1,48055.99926,unknown,2,2023-02-16T15:32:20.730-08:00,2023-02-14T17:43:35.488-08:00,10100,1.232782,0.6806797,1.921202,7490.928,17,23,2023-02-16T15:32:18.167-08:00,698283141.1,0,-26.32,100.6649,1,0.71,0
2023-02-16T15:32:23.181-08:00,1676590342,34.06377458,-118.4511064,125.5147,0.87,1.02,336.0937479,14.35411724,7.09627238,15.93937739,-9999,48058.44644,0.130569458,-0.05178833,0.129272461,48058.43643,2.793495838,1.289325535,-0.777749383,-4.385779381,-1.492119074,1.093211412,-0.584938645,-1.172930121,0.244066596,XArbitraryZVertical,0.600140312,0.202181127,-0.688993791,-0.352479708,0.684456408,0.70167762,-0.197908804,0,0,0,-1,-1,48055.99926,unknown,2,2023-02-16T15:32:20.730-08:00,2023-02-14T17:43:35.488-08:00,10100,1.232782,0.6806797,1.921202,7490.928,17,23,2023-02-16T15:32:18.167-08:00,698283141.1,0,-26.32,100.6649,1,0.71,0
2023-02-16T15:32:23.215-08:00,1676590342,34.06377458,-118.4511064,125.5147,0.87,1.02,336.0937479,14.35411724,7.09627238,15.93937739,-9999,48058.48022,0.206253052,0.24760437,0.51473999,48058.46645,2.9829989,1.376595594,-0.773729328,-3.78860569,-1.440415502,1.539703369,-0.51660639,-0.435990334,0.507808268,XArbitraryZVertical,0.609511699,0.243873804,-0.694018574,-0.295565957,0.701863289,0.698807716,-0.138042107,0,0,0,-1,-1,48055.99926,unknown,2,2023-02-16T15:32:20.730-08:00,2023-02-14T17:43:35.488-08:00,10100,1.232782,0.6806797,1.921202,7490.928,17,23,2023-02-16T15:32:18.167-08:00,698283141.1,0,-26.32,100.6649,1,0.71,0
2023-02-16T15:32:23.246-08:00,1676590342,34.06377458,-118.4511064,125.5147,0.87,1.02,336.0937479,14.35411724,7.09627238,15.93937739,-9999,48058.51398,0.58934021,0.221298218,0.334762573,48058.49648,3.131373995,1.443839615,-0.732783757,-3.233755827,-0.800084352,2.213778019,-0.465207577,-0.493144989,0.650283098,XArbitraryZVertical,0.618330815,0.265723977,-0.699503515,-0.240317734,0.737332761,0.668941438,-0.09411554,0,0,0,-1,-1,48055.99926,unknown,2,2023-02-16T15:32:20.730-08:00,2023-02-14T17:43:35.488-08:00,10100,1.232782,0.6806797,1.921202,7490.928,17,23,2023-02-16T15:32:18.167-08:00,698283141.1,0,-26.32,100.6649,1,0.71,0
2023-02-16T15:32:23.281-08:00,1676590342,34.06377458,-118.4511064,125.5147,0.87,1.02,336.0937479,14.35411724,7.09627238,15.93937739,-9999,48058.54777,1.23097229,0.676803589,-0.080184937,48058.52651,-3.023759262,1.504336556,-0.666937957,-2.457389593,-0.6974231,2.744588375,-0.066806614,-0.275565445,0.27672857,XArbitraryZVertical,0.630392688,0.276613281,-0.701954831,-0.182618652,0.7839849,0.618582964,-0.052180305,0,0,0,-1,-1,48055.99926,unknown,2,2023-02-16T15:32:20.730-08:00,2023-02-14T17:43:35.488-08:00,10100,1.232782,0.6806797,1.921202,7490.928,17,23,2023-02-16T15:32:18.167-08:00,698283141.1,0,-26.32,100.6649,1,0.71,0
2023-02-16T15:32:23.316-08:00,1676590343,34.06378152,-118.4511097,125.8169,0.97,1,336.0937476,17.97903524,6.796026896,16.06968736,-9999,48058.58155,1.374206543,0.88104248,-0.058837891,48058.55653,-2.947145976,1.52558457,-0.573882259,-1.52133882,-0.907194912,3.71519208,0.472139478,0.158824682,-0.109352589,XArbitraryZVertical,0.639702993,0.267959218,-0.709060402,-0.127323079,0.838941336,0.54289645,-0.037955876,0,0,0,-1,-1,48055.99926,unknown,2,2023-02-16T15:32:20.730-08:00,2023-02-14T17:43:35.488-08:00,10100,1.232782,0.6806797,1.921202,7490.928,17,23,2023-02-16T15:32:18.167-08:00,698283141.1,0,-26.32,100.6649,1,0.71,0
2023-02-16T15:32:23.350-08:00,1676590343,34.06378152,-118.4511097,125.8169,0.97,1,336.0937476,17.97903524,6.796026896,16.06968736,-9999,48058.61534,1.340759277,1.054275513,0.211898804,48058.58656,-2.897857165,1.527380086,-0.459796756,-0.986791611,-0.628280282,3.881655693,0.4789083,0.437276453,-0.019943055,XArbitraryZVertical,0.648391884,0.245235609,-0.717227778,-0.070934261,0.895298123,0.443765968,-0.038894922,0,0,0,-1,-1,48055.99926,unknown,2,2023-02-16T15:32:20.730-08:00,2023-02-14T17:43:35.488-08:00,10100,1.232782,0.6806797,1.921202,7490.928,17,23,2023-02-16T15:32:18.167-08:00,698283141.1,0,-26.32,100.6649,1,0.71,0
2023-02-16T15:32:23.382-08:00,1676590343,34.06378152,-118.4511097,125.8169,0.97,1,336.0937476,17.97903524,6.796026896,16.06968736,-9999,48058.6491,1.451126099,1.337799072,0.306396484,48058.61659,-2.854772647,1.529109308,-0.35103814,-1.81884408,-0.346064091,3.199008465,0.389085293,0.680419147,0.238626778,XArbitraryZVertical,0.656572851,0.222138169,-0.720583111,-0.018074763,0.938200414,0.343872815,-0.039133452,0,0,0,-1,-1,48055.99926,unknown,2,2023-02-16T15:32:20.730-08:00,2023-02-14T17:43:35.488-08:00,10103,1.23265,0.6806797,1.921202,7493.222,17,23,2023-02-16T15:32:20.730-08:00,698283141.1,0,-26.32,100.6649,1,0.71,0
2023-02-16T15:32:23.416-08:00,1676590343,34.06378152,-118.4511097,125.8169,0.97,1,336.0937476,17.97903524,6.796026896,16.06968736,-9999,48058.68289,1.506164551,1.402542114,-0.219161987,48058.67664,-2.786992643,1.549650612,-0.215689851,0.7577703,0.005452615,1.163451672,0.5150581,1.353742957,-0.105536044,XArbitraryZVertical,0.67105854,0.198376743,-0.71253664,0.05117292,0.976610601,0.21402134,-0.020654209,0,0,0,-1,-1,48058.56154,unknown,2,2023-02-16T15:32:23.292-08:00,2023-02-14T17:43:35.488-08:00,10103,1.23265,0.6806797,1.921202,7493.222,17,23,2023-02-16T15:32:20.730-08:00,698283141.1,0,-26.32,100.6649,1,0.71,0
2023-02-16T15:32:23.451-08:00,1676590343,34.06378152,-118.4511097,125.8169,0.97,1,336.0937476,17.97903524,6.796026896,16.06968736,-9999,48058.71667,1.198867798,1.168457031,-0.002151489,48058.70667,-2.817642924,1.544355468,-0.194833567,0.882620871,0.020832771,0.165465549,0.403067291,0.992569208,-0.08548218,XArbitraryZVertical,0.674063137,0.180748728,-0.714607297,0.048011427,0.980736852,0.193603247,-0.02593757,0,0,0,-1,-1,48058.56154,unknown,2,2023-02-16T15:32:23.292-08:00,2023-02-14T17:43:35.488-08:00,10103,1.23265,0.6806797,1.921202,7493.222,17,23,2023-02-16T15:32:20.730-08:00,698283141.1,0,-26.32,100.6649,1,0.71,0
2023-02-16T15:32:23.485-08:00,1676590343,34.06378152,-118.4511097,125.8169,0.97,1,336.0937476,17.97903524,6.796026896,16.06968736,-9999,48058.75046,1.232421875,1.109420776,0.010543823,48058.73669,-2.837372778,1.543983872,-0.205605546,0.639875233,0.246792153,-0.835682213,0.156942904,0.94220233,0.056334853,XArbitraryZVertical,0.674727528,0.177821473,-0.715356926,0.03723848,0.978585601,0.20415999,-0.026244573,0,0,0,-1,-1,48058.56154,unknown,2,2023-02-16T15:32:23.292-08:00,2023-02-14T17:43:35.488-08:00,10103,1.23265,0.6806797,1.921202,7493.222,17,23,2023-02-16T15:32:20.730-08:00,698283141.1,0,-26.32,100.6649,1,0.71,0
2023-02-16T15:32:23.516-08:00,1676590343,34.06378152,-118.4511097,125.8169,0.97,1,336.0937476,17.97903524,6.796026896,16.06968736,-9999,48058.78422,1.296157837,1.064453125,-0.095825195,48058.76672,-2.86942909,1.545292754,-0.238146053,1.510990977,0.229541853,-1.329694033,0.334645569,0.877013564,-0.029616531,XArbitraryZVertical,0.675142707,0.178302487,-0.715671639,0.014301166,0.971460819,0.235901415,-0.024781095,0,0,0,-1,-1,48058.56154,unknown,2,2023-02-16T15:32:23.292-08:00,2023-02-14T17:43:35.488-08:00,10103,1.23265,0.6806797,1.921202,7493.222,17,23,2023-02-16T15:32:20.730-08:00,698283141.1,0,-26.32,100.6649,1,0.71,0
2023-02-16T15:32:23.551-08:00,1676590343,34.06378152,-118.4511097,125.8169,0.97,1,336.0937476,17.97903524,6.796026896,16.06968736,-9999,48058.81801,1.123718262,0.866043091,-0.057678223,48058.79675,-2.934863976,1.532670179,-0.283345798,2.573619127,0.071299009,-1.793233871,0.309035361,0.752153397,-0.045647919,XArbitraryZVertical,0.67239073,0.172023829,-0.719535806,-0.02380683,0.959427714,0.279569596,-0.036597017,0,0,0,-1,-1,48058.56154,unknown,2,2023-02-16T15:32:23.292-08:00,2023-02-14T17:43:35.488-08:00,10103,1.23265,0.6806797,1.921202,7493.222,17,23,2023-02-16T15:32:20.730-08:00,698283141.1,0,-26.32,100.6649,1,0.71,0
2023-02-16T15:32:23.586-08:00,1676590343,34.06378152,-118.4511097,125.8169,0.97,1,336.0937476,17.97903524,6.796026896,16.06968736,-9999,48058.85179,0.969421387,0.596710205,-0.036392212,48058.82677,-3.03297435,1.502192163,-0.3398394,3.393216372,-0.091862552,-2.288414478,0.161551893,0.50565356,0.011529207,XArbitraryZVertical,0.664910832,0.159933312,-0.725616693,-0.076126838,0.940590382,0.333335668,-0.064629838,0,0,0,-1,-1,48058.56154,unknown,2,2023-02-16T15:32:23.292-08:00,2023-02-14T17:43:35.488-08:00,10103,1.23265,0.6806797,1.921202,7493.222,17,23,2023-02-16T15:32:20.730-08:00,698283141.1,0,-26.32,100.6649,1,0.71,0
2023-02-16T15:32:23.621-08:00,1676590343,34.06378152,-118.4511097,125.8169,0.97,1,336.0937476,17.97903524,6.796026896,16.06968736,-9999,48058.88558,0.972610474,0.406433105,-0.06111145,48058.8568,3.128763015,1.452412332,-0.407521982,3.602296829,-0.283756226,-2.879120827,0.057741642,0.200374693,0.072043069,XArbitraryZVertical,0.651257643,0.1471252,-0.731353839,-0.139065012,0.911679626,0.396335453,-0.108435318,0,0,0,-1,-1,48058.56154,unknown,2,2023-02-16T15:32:23.292-08:00,2023-02-14T17:43:35.488-08:00,10103,1.23265,0.6806797,1.921202,7493.222,17,23,2023-02-16T15:32:20.730-08:00,698283141.1,0,-26.32,100.6649,1,0.71,0
2023-02-16T15:32:23.651-08:00,1676590343,34.06378152,-118.4511097,125.8169,0.97,1,336.0937476,17.97903524,6.796026896,16.06968736,-9999,48058.91934,0.984207153,0.253204346,0.031051636,48058.88683,2.998915725,1.385236611,-0.486108605,3.209047318,-0.50415051,-3.404531717,0.09845835,-0.045939475,0.096992433,XArbitraryZVertical,0.631410761,0.140564556,-0.734102957,-0.206530465,0.868979275,0.467188835,-0.163124114,0,0,0,-1,-1,48058.56154,unknown,2,2023-02-16T15:32:23.292-08:00,2023-02-14T17:43:35.488-08:00,10103,1.23265,0.6806797,1.921202,7493.222,17,23,2023-02-16T15:32:20.730-08:00,698283141.1,0,-26.32,100.6649,1,0.71,0
2023-02-16T15:32:23.686-08:00,1676590343,34.06378152,-118.4511097,125.8169,0.97,1,336.0937476,17.97903524,6.796026896,16.06968736,-9999,48058.95313,0.94430542,0.234848022,0.047988892,48058.94688,2.774600658,1.21898308,-0.661582341,1.310704708,-0.870864153,-3.652247429,0.21731478,-0.378617883,0.335449874,XArbitraryZVertical,0.58091912,0.163047352,-0.728541901,-0.324307165,0.740692973,0.614366114,-0.271897078,0,0,0,-1,-1,48058.56154,unknown,2,2023-02-16T15:32:23.292-08:00,2023-02-14T17:43:35.488-08:00,10103,1.23265,0.6806797,1.921202,7493.222,17,23,2023-02-16T15:32:20.730-08:00,698283141.1,0,-26.32,100.6649,1,0.71,0
2023-02-16T15:32:23.721-08:00,1676590343,34.06378152,-118.4511097,125.8169,0.97,1,336.0937476,17.97903524,6.796026896,16.06968736,-9999,48058.98691,0.842712402,0.254898071,-0.014328003,48058.9769,2.685474791,1.13525234,-0.749327934,0.694020271,-0.841466069,-3.432715178,0.227410734,-0.442179024,0.315532893,XArbitraryZVertical,0.557145325,0.187460387,-0.719887777,-0.369065271,0.663793981,0.68114686,-0.308895379,0,0,0,-1,-1,48058.56154,unknown,2,2023-02-16T15:32:23.292-08:00,2023-02-14T17:43:35.488-08:00,10103,1.23265,0.6806797,1.921202,7493.222,17,23,2023-02-16T15:32:20.730-08:00,698283141.1,0,-26.32,100.6649,1,0.71,0
2023-02-16T15:32:23.756-08:00,1676590343,34.06378152,-118.4511097,125.8169,0.97,1,336.0937476,17.97903524,6.796026896,16.06968736,-9999,48059.0207,0.805557251,0.193313599,-0.048446655,48059.00693,2.600508129,1.051447672,-0.827593217,0.522230148,-0.724200428,-2.969884157,0.232746542,-0.482749701,0.306320727,XArbitraryZVertical,0.53571967,0.212341206,-0.709224779,-0.406098273,0.58742851,0.736304939,-0.335831285,0,0,0,-1,-1,48058.56154,unknown,2,2023-02-16T15:32:23.292-08:00,2023-02-14T17:43:35.488-08:00,10103,1.23265,0.6806797,1.921202,7493.222,17,23,2023-02-16T15:32:20.730-08:00,698283141.1,0,-26.32,100.6649,1,0.71,0
2023-02-16T15:32:23.787-08:00,1676590343,34.06378152,-118.4511097,125.8169,0.97,1,336.0937476,17.97903524,6.796026896,16.06968736,-9999,48059.05446,0.712341309,0.173980713,0.008300781,48059.03696,2.516585784,0.966574701,-0.886446974,0.481558293,-0.684129298,-2.280841827,0.254021406,-0.591999769,0.329089046,XArbitraryZVertical,0.516206674,0.232284773,-0.699901598,-0.435559618,0.520240009,0.77483052,-0.35914892,0,0,0,-1,-1,48058.56154,unknown,2,2023-02-16T15:32:23.292-08:00,2023-02-14T17:43:35.488-08:00,10103,1.23265,0.6806797,1.921202,7493.222,17,23,2023-02-16T15:32:20.730-08:00,698283143.7,0,-26.32,100.6662,1,0.71,0
2023-02-16T15:32:23.822-08:00,1676590343,34.06378152,-118.4511097,125.8169,0.97,1,336.0937476,17.97903524,6.796026896,16.06968736,-9999,48059.08825,0.756118774,0.196838379,0.003723145,48059.06698,2.443960722,0.891735691,-0.923547077,0.432431817,-0.464970291,-1.457895279,0.241694331,-0.623703837,0.389139712,XArbitraryZVertical,0.500214999,0.245816918,-0.693427714,-0.456636621,0.46922788,0.797745526,-0.378717989,0,0,0,-1,-1,48058.56154,unknown,2,2023-02-16T15:32:23.292-08:00,2023-02-14T17:43:35.488-08:00,10103,1.23265,0.6806797,1.921202,7493.222,17,23,2023-02-16T15:32:20.730-08:00,698283143.7,0,-26.32,100.6662,1,0.71,0
2023-02-16T15:32:23.856-08:00,1676590343,34.06378152,-118.4511097,125.8169,0.97,1,336.0937476,17.97903524,6.796026896,16.06968736,-9999,48059.12203,0.798934937,0.184158325,-0.006530762,48059.09701,2.395214014,0.842024666,-0.93980019,0.328240931,-0.236862019,-0.630489588,0.321819037,-0.607672215,0.392650068,XArbitraryZVertical,0.489975756,0.25196085,-0.690275382,-0.4689982,0.440098047,0.807440221,-0.392878979,0,0,0,-1,-1,48058.56154,unknown,2,2023-02-16T15:32:23.292-08:00,2023-02-14T17:43:35.488-08:00,10103,1.23265,0.6806797,1.921202,7493.222,17,23,2023-02-16T15:32:20.730-08:00,698283143.7,0,-26.32,100.6662,1,0.71,0
2023-02-16T15:32:23.892-08:00,1676590343,34.06378152,-118.4511097,125.8169,0.97,1,336.0937476,17.97903524,6.796026896,16.06968736,-9999,48059.15582,0.861953735,0.175354004,0.038497925,48059.12704,2.379898657,0.825711092,-0.941185952,0.022602201,-0.019062715,0.154271483,0.366127253,-0.624098778,0.39271608,XArbitraryZVertical,0.486366905,0.252633727,-0.690293981,-0.472353183,0.432807595,0.808256984,-0.399246871,0,0,0,-1,-1,48058.56154,unknown,2,2023-02-16T15:32:23.292-08:00,2023-02-14T17:43:35.488-08:00,10103,1.23265,0.6806797,1.921202,7493.222,17,23,2023-02-16T15:32:20.730-08:00,698283143.7,0,-26.32,100.6662,1,0.71,0
2023-02-16T15:32:23.922-08:00,1676590343,34.06378152,-118.4511097,125.8169,0.97,1,336.0937476,17.97903524,6.796026896,16.06968736,-9999,48059.18958,1.146759033,0.24659729,0.019119263,48059.15706,2.404665369,0.850208815,-0.930611103,-0.24656029,0.330610126,1.072309971,0.390012026,-0.630201697,0.433648229,XArbitraryZVertical,0.491060228,0.248572404,-0.692847365,-0.465869188,0.448855132,0.801985145,-0.394143224,0,0,0,-1,-1,48058.56154,unknown,2,2023-02-16T15:32:23.292-08:00,2023-02-14T17:43:35.488-08:00,10103,1.23265,0.6806797,1.921202,7493.222,17,23,2023-02-16T15:32:20.730-08:00,698283143.7,0,-26.32,100.6662,1,0.71,0
2023-02-16T15:32:23.958-08:00,1676590343,34.06378152,-118.4511097,125.8169,0.97,1,336.0937476,17.97903524,6.796026896,16.06968736,-9999,48059.22337,1.179824829,0.464279175,-0.17149353,48059.21712,2.57896286,1.018620374,-0.846204815,-1.353489995,0.600274384,3.095890045,0.651603758,-0.373037875,0.30652836,XArbitraryZVertical,0.526625323,0.220964044,-0.709221184,-0.413335119,0.564323246,0.748770237,-0.347681314,0,0,0,-1,-1,48058.56154,unknown,2,2023-02-16T15:32:23.292-08:00,2023-02-14T17:43:35.488-08:00,10103,1.23265,0.6806797,1.921202,7493.222,17,23,2023-02-16T15:32:20.730-08:00,698283143.7,0,-26.32,100.6662,1,0.71,0
2023-02-16T15:32:23.992-08:00,1676590343,34.06378152,-118.4511097,125.8169,0.97,1,336.0937476,17.97903524,6.796026896,16.06968736,-9999,48059.25715,1.030929565,0.63633728,-0.249404907,48059.24714,2.703063693,1.124942636,-0.784870158,-1.491962671,0.528043985,3.147408247,0.418779492,-0.121406138,0.001710147,XArbitraryZVertical,0.551311137,0.208598441,-0.718557102,-0.369077927,0.638318896,0.706733346,-0.30508545,0,0,0,-1,-1,48058.56154,unknown,2,2023-02-16T15:32:23.292-08:00,2023-02-14T17:43:35.488-08:00,10103,1.23265,0.6806797,1.921202,7493.222,17,23,2023-02-16T15:32:20.730-08:00,698283143.7,0,-26.32,100.6662,1,0.71,0
2023-02-16T15:32:24.026-08:00,1676590343,34.06378152,-118.4511097,125.8169,0.97,1,336.0937476,17.97903524,6.796026896,16.06968736,-9999,48059.29094,1.425796509,0.741271973,-0.02746582,48059.27717,2.804239468,1.210814461,-0.714120714,-1.251188755,0.591359258,3.106156826,0.425014436,-0.055206537,0.105209768,XArbitraryZVertical,0.573884064,0.193809347,-0.726081787,-0.325423174,0.707233429,0.654953241,-0.266190022,0,0,0,-1,-1,48058.56154,unknown,2,2023-02-16T15:32:23.292-08:00,2023-02-14T17:43:35.488-08:00,10103,1.23265,0.6806797,1.921202,7493.222,17,23,2023-02-16T15:32:20.730-08:00,698283143.7,0,-26.32,100.6662,1,0.71,0
2023-02-16T15:32:24.057-08:00,1676590343,34.06378152,-118.4511097,125.8169,0.97,1,336.0937476,17.97903524,6.796026896,16.06968736,-9999,48059.3247,1.267181396,1.317077637,-0.172561646,48059.3072,2.880232137,1.271215016,-0.640020131,-0.847048461,0.251284063,2.860402584,0.749235451,0.483370006,0.249299482,XArbitraryZVertical,0.591709173,0.177552029,-0.733009074,-0.284698215,0.766358912,0.597211599,-0.236711055,0,0,0,-1,-1,48058.56154,unknown,2,2023-02-16T15:32:23.292-08:00,2023-02-14T17:43:35.488-08:00,10103,1.23265,0.6806797,1.921202,7493.222,17,23,2023-02-16T15:32:20.730-08:00,698283143.7,0,-26.32,100.6662,1,0.71,0
2023-02-16T15:32:24.091-08:00,1676590343,34.06378152,-118.4511097,125.8169,0.97,1,336.0937476,17.97903524,6.796026896,16.06968736,-9999,48059.35849,0.635269165,1.460693359,-0.454269409,48059.33722,2.936374071,1.308877531,-0.571252931,-1.063704967,0.129659995,2.193092108,0.32679379,0.811196446,-0.052853823,XArbitraryZVertical,0.603877763,0.162544505,-0.739674116,-0.248582214,0.812534153,0.540686488,-0.217821866,0,0,0,-1,-1,48058.56154,unknown,2,2023-02-16T15:32:23.292-08:00,2023-02-14T17:43:35.488-08:00,10103,1.23265,0.6806797,1.921202,7493.222,17,23,2023-02-16T15:32:20.730-08:00,698283143.7,0,-26.32,100.6662,1,0.71,0
2023-02-16T15:32:24.126-08:00,1676590343,34.06378152,-118.4511097,125.8169,0.97,1,336.0937476,17.97903524,6.796026896,16.06968736,-9999,48059.39227,0.096664429,1.415908813,-0.204162598,48059.36725,2.990193335,1.341046562,-0.535456209,-1.235720515,0.171104431,0.970084786,-0.275501728,0.945989072,-0.255907744,XArbitraryZVertical,0.613217328,0.161353171,-0.74098823,-0.221056904,0.837437153,0.510233462,-0.195859328,0,0,0,-1,-1,48058.56154,unknown,2,2023-02-16T15:32:23.292-08:00,2023-02-14T17:43:35.488-08:00,10103,1.23265,0.6806797,1.921202,7493.222,17,23,2023-02-16T15:32:20.730-08:00,698283143.7,0,-26.32,100.6662,1,0.71,0
2023-02-16T15:32:24.161-08:00,1676590343,34.06378152,-118.4511097,125.8169,0.97,1,336.0937476,17.97903524,6.796026896,16.06968736,-9999,48059.42606,-0.091705322,1.265396118,-0.085113525,48059.39728,3.041510261,1.372252558,-0.524796687,-1.455369234,0.16493395,0.296704292,-0.751760006,0.914871633,-0.033464417,XArbitraryZVertical,0.621132013,0.169840829,-0.738066731,-0.20151057,0.848424315,0.501037061,-0.170698225,0,0,0,-1,-1,48058.56154,unknown,2,2023-02-16T15:32:23.292-08:00,2023-02-14T17:43:35.488-08:00,10103,1.23265,0.6806797,1.921202,7493.222,17,23,2023-02-16T15:32:20.730-08:00,698283143.7,0,-26.32,100.6662,1,0.71,0
2023-02-16T15:32:24.191-08:00,1676590343,34.06378152,-118.4511097,125.8169,0.97,1,336.0937476,17.97903524,6.796026896,16.06968736,-9999,48059.45982,0.121505737,1.250976563,-0.24105835,48059.4273,3.094393207,1.406881091,-0.535817579,-1.720067263,0.337870032,-0.458004415,-0.944929421,0.762969553,0.06436938,XArbitraryZVertical,0.62836028,0.187101934,-0.731170442,-0.188536264,0.848325908,0.510544181,-0.140312448,0,0,0,-1,-1,48058.56154,unknown,2,2023-02-16T15:32:23.292-08:00,2023-02-14T17:43:35.488-08:00,10103,1.23265,0.6806797,1.921202,7493.222,17,23,2023-02-16T15:32:20.730-08:00,698283143.7,0,-26.32,100.6662,1,0.71,0
2023-02-16T15:32:24.227-08:00,1676590343,34.06378152,-118.4511097,125.8169,0.97,1,336.0937476,17.97903524,6.796026896,16.06968736,-9999,48059.49361,0.075683594,0.357925415,-0.158691406,48059.48736,3.124100913,1.459607374,-0.586013365,0.92958194,0.904797316,-0.466593981,-0.681934893,0.053401351,-0.106985927,XArbitraryZVertical,0.640165711,0.209677354,-0.711828719,-0.198804173,0.828007221,0.553043962,-0.092446543,0,0,0,-1,-1,48058.56154,unknown,2,2023-02-16T15:32:23.292-08:00,2023-02-14T17:43:35.488-08:00,10103,1.23265,0.6806797,1.921202,7493.222,17,23,2023-02-16T15:32:20.730-08:00,698283143.7,0,-26.32,100.6662,1,0.71,0
2023-02-16T15:32:24.262-08:00,1676590344,34.06378594,-118.4511115,125.9005,0.87,1.54,336.0937479,27.2912144,6.709550415,16.10598543,-9999,48059.52739,0.225112915,0.231506348,-0.077926636,48059.51738,3.082434825,1.468047961,-0.586669366,1.705094934,1.305048943,0.214055851,-0.718899906,-0.250291407,-0.034639008,XArbitraryZVertical,0.64731837,0.19562798,-0.704730531,-0.214624191,0.828397036,0.553590357,-0.085417241,0,0,0,-1,-1,48058.56154,unknown,2,2023-02-16T15:32:23.292-08:00,2023-02-14T17:43:35.488-08:00,10103,1.23265,0.6806797,1.921202,7493.222,17,23,2023-02-16T15:32:20.730-08:00,698283143.7,0,-26.32,100.6662,1,0.71,0
2023-02-16T15:32:24.296-08:00,1676590344,34.06378594,-118.4511115,125.9005,0.87,1.54,336.0937479,27.2912144,6.709550415,16.10598543,-9999,48059.56118,0.84437561,0.161804199,0.062973022,48059.54741,2.98216255,1.462719986,-0.554577758,3.775572062,1.897983432,1.238190055,-0.429253936,-0.407977879,0.127282858,XArbitraryZVertical,0.656554356,0.151943022,-0.69900428,-0.239254177,0.84516263,0.526584387,-0.091699392,0,0,0,-1,-1,48058.56154,unknown,2,2023-02-16T15:32:23.292-08:00,2023-02-14T17:43:35.488-08:00,10103,1.23265,0.6806797,1.921202,7493.222,17,23,2023-02-16T15:32:20.730-08:00,698283143.7,0,-26.32,100.6662,1,0.71,0
2023-02-16T15:32:24.328-08:00,1676590344,34.06378594,-118.4511115,125.9005,0.87,1.54,336.0937479,27.2912144,6.709550415,16.10598543,-9999,48059.59494,1.480392456,0.757492065,0.168670654,48059.57744,2.852926912,1.457501954,-0.501075007,3.700774431,2.055320978,1.182590365,0.234619975,-0.202872396,0.211062133,XArbitraryZVertical,0.665041411,0.090237395,-0.691453989,-0.267335725,0.871443689,0.480368674,-0.099154271,0,0,0,-1,-1,48058.56154,unknown,2,2023-02-16T15:32:23.292-08:00,2023-02-14T17:43:35.488-08:00,10103,1.23265,0.6806797,1.921202,7493.222,17,23,2023-02-16T15:32:20.730-08:00,698283143.7,0,-26.32,100.6662,1,0.71,0
2023-02-16T15:32:24.362-08:00,1676590344,34.06378594,-118.4511115,125.9005,0.87,1.54,336.0937479,27.2912144,6.709550415,16.10598543,-9999,48059.62873,1.537826538,0.536651611,0.024551392,48059.60746,2.733047673,1.459727259,-0.466264973,3.859663248,1.757326603,0.394789577,0.639121175,0.407945037,0.262674689,XArbitraryZVertical,0.670169116,0.03699816,-0.678780298,-0.297929171,0.887749553,0.449553102,-0.099008985,0,0,0,-1,-1,48058.56154,unknown,2,2023-02-16T15:32:23.292-08:00,2023-02-14T17:43:35.488-08:00,10103,1.23265,0.6806797,1.921202,7493.222,17,23,2023-02-16T15:32:20.730-08:00,698283143.7,0,-26.32,100.6662,1,0.71,0
2023-02-16T15:32:24.397-08:00,1676590344,34.06378594,-118.4511115,125.9005,0.87,1.54,336.0937479,27.2912144,6.709550415,16.10598543,-9999,48059.66251,1.426300049,0.639205933,-0.587127686,48059.63749,2.612219306,1.453449585,-0.454368854,2.581439734,1.186479211,-0.653551579,0.602392197,0.075524241,0.238453627,XArbitraryZVertical,0.668844727,-0.006883532,-0.663642571,-0.334929532,0.892358661,0.438895285,-0.105198696,0,0,0,-1,-1,48058.56154,unknown,2,2023-02-16T15:32:23.292-08:00,2023-02-14T17:43:35.488-08:00,10103,1.23265,0.6806797,1.921202,7493.222,17,23,2023-02-16T15:32:20.730-08:00,698283143.7,0,-26.32,100.6662,1,0.71,0
2023-02-16T15:32:24.432-08:00,1676590344,34.06378594,-118.4511115,125.9005,0.87,1.54,336.0937479,27.2912144,6.709550415,16.10598543,-9999,48059.6963,1.551391602,0.110519409,-0.619689941,48059.66752,2.551008893,1.451823448,-0.474015075,1.627138853,0.637014151,-0.868583322,0.542846859,0.182743549,-0.481522024,XArbitraryZVertical,0.668435359,-0.019781858,-0.650162489,-0.360681984,0.883453131,0.456462324,-0.105605699,0,0,0,-1,-1,48058.56154,unknown,2,2023-02-16T15:32:23.292-08:00,2023-02-14T17:43:35.488-08:00,10103,1.23265,0.6806797,1.921202,7493.222,17,23,2023-02-16T15:32:20.730-08:00,698283143.7,0,-26.32,100.6662,1,0.71,0
2023-02-16T15:32:24.462-08:00,1676590344,34.06378594,-118.4511115,125.9005,0.87,1.54,336.0937479,27.2912144,6.709550415,16.10598543,-9999,48059.73006,1.158157349,0.53276062,-0.249771118,48059.69754,2.508619164,1.447695133,-0.488685973,0.416019291,0.24427551,-0.401316702,0.681287229,-0.375288844,-0.469646096,XArbitraryZVertical,0.667099421,-0.027737865,-0.641036284,-0.378525308,0.876268864,0.46946606,-0.108417943,0,0,0,-1,-1,48058.56154,unknown,2,2023-02-16T15:32:23.292-08:00,2023-02-14T17:43:35.488-08:00,10103,1.23265,0.6806797,1.921202,7493.222,17,23,2023-02-16T15:32:20.730-08:00,698283143.7,0,-26.32,100.6662,1,0.71,0
2023-02-16T15:32:24.497-08:00,1676590344,34.06378594,-118.4511115,125.9005,0.87,1.54,336.0937479,27.2912144,6.709550415,16.10598543,-9999,48059.76385,0.58416748,-0.224243164,0.466644287,48059.7576,2.47326046,1.430662286,-0.495868457,1.08054924,0.50004226,0.209467888,-0.292076409,-0.509288669,0.495029747,XArbitraryZVertical,0.661399375,-0.033533715,-0.638524373,-0.392062569,0.87093389,0.475795686,-0.122852713,0,0,0,-1,-1,48058.56154,unknown,2,2023-02-16T15:32:23.292-08:00,2023-02-14T17:43:35.488-08:00,10103,1.23265,0.6806797,1.921202,7493.222,17,23,2023-02-16T15:32:20.730-08:00,698283143.7,0,-26.32,100.6662,1,0.71,0
2023-02-16T15:32:24.532-08:00,1676590344,34.06378594,-118.4511115,125.9005,0.87,1.54,336.0937479,27.2912144,6.709550415,16.10598543,-9999,48059.79763,1.176727295,-0.120407104,0.439056396,48059.78762,2.444311685,1.439640287,-0.475258072,0.562576771,0.874901295,0.97721529,0.071007252,-0.714846373,0.509032428,XArbitraryZVertical,0.662644113,-0.052530912,-0.633813399,-0.395504552,0.881537855,0.45756793,-0.116286568,0,0,0,-1,-1,48058.56154,unknown,2,2023-02-16T15:32:23.292-08:00,2023-02-14T17:43:35.488-08:00,10103,1.23265,0.6806797,1.921202,7493.222,17,23,2023-02-16T15:32:20.730-08:00,698283143.7,0,-26.32,100.6662,1,0.71,0
2023-02-16T15:32:24.567-08:00,1676590344,34.06378594,-118.4511115,125.9005,0.87,1.54,336.0937479,27.2912144,6.709550415,16.10598543,-9999,48059.83142,1.0365448,0.712310791,0.385574341,48059.81765,2.469913495,1.475517222,-0.444641088,-1.526228547,0.756320238,1.128586531,0.289332986,-0.164554715,0.569435537,XArbitraryZVertical,0.673195582,-0.062172536,-0.63256618,-0.37789195,0.898670495,0.430133909,-0.085884571,0,0,0,-1,-1,48058.56154,unknown,2,2023-02-16T15:32:23.292-08:00,2023-02-14T17:43:35.488-08:00,10103,1.23265,0.6806797,1.921202,7493.222,17,23,2023-02-16T15:32:20.730-08:00,698283143.7,0,-26.32,100.6662,1,0.71,0
2023-02-16T15:32:24.597-08:00,1676590344,34.06378594,-118.4511115,125.9005,0.87,1.54,336.0937479,27.2912144,6.709550415,16.10598543,-9999,48059.86518,0.908187866,0.434997559,-0.039031982,48059.84768,2.515447621,1.516280279,-0.418529077,-1.131592035,0.655779183,0.749145627,0.083946526,0.430085093,0.343822718,XArbitraryZVertical,0.686336881,-0.063629411,-0.631758512,-0.354646375,0.91233021,0.406416923,-0.049785968,0,0,0,-1,-1,48058.56154,unknown,2,2023-02-16T15:32:23.292-08:00,2023-02-14T17:43:35.488-08:00,10103,1.23265,0.6806797,1.921202,7493.222,17,23,2023-02-16T15:32:20.730-08:00,698283143.7,0,-26.32,100.6662,1,0.71,0
2023-02-16T15:32:24.632-08:00,1676590344,34.06378594,-118.4511115,125.9005,0.87,1.54,336.0937479,27.2912144,6.709550415,16.10598543,-9999,48059.89896,0.620910645,0.664733887,-0.030517578,48059.8777,2.564307338,1.553971169,-0.405175572,-2.079757929,0.540737212,0.213883147,-0.059879065,-0.026183873,-0.064066708,XArbitraryZVertical,0.69922012,-0.057966788,-0.629398099,-0.334049666,0.918903172,0.394180119,-0.015462151,0,0,0,-1,-1,48058.56154,unknown,2,2023-02-16T15:32:23.292-08:00,2023-02-14T17:43:35.488-08:00,10103,1.23265,0.6806797,1.921202,7493.222,17,23,2023-02-16T15:32:20.730-08:00,698283143.7,0,-26.32,100.6662,1,0.71,0
2023-02-16T15:32:24.667-08:00,1676590344,34.06378594,-118.4511115,125.9005,0.87,1.54,336.0937479,27.2912144,6.709550415,16.10598543,-9999,48059.93275,0.414672852,0.380493164,0.084091187,48059.90773,2.627327536,1.594555665,-0.399923818,-1.318531275,0.555189788,0.208206415,-0.324685037,0.285456449,-0.058472991,XArbitraryZVertical,0.713439341,-0.044108143,-0.626083107,-0.311574421,0.920830548,0.389348179,0.021882443,0,0,0,-1,-1,48058.56154,unknown,2,2023-02-16T15:32:23.292-08:00,2023-02-14T17:43:35.488-08:00,10103,1.23265,0.6806797,1.921202,7493.222,17,23,2023-02-16T15:32:20.730-08:00,698283143.7,0,-26.32,100.6662,1,0.71,0
2023-02-16T15:32:24.702-08:00,1676590344,34.06378594,-118.4511115,125.9005,0.87,1.54,336.0937479,27.2912144,6.709550415,16.10598543,-9999,48059.96654,0.479797363,0.264358521,-0.02192688,48059.93776,2.658464401,1.62575857,-0.392554077,-0.673967719,0.72981149,0.189966232,-0.507866979,-0.002056271,0.033335097,XArbitraryZVertical,0.723711904,-0.040237659,-0.620753236,-0.298810047,0.92253983,0.382549465,0.050755978,0,0,0,-1,-1,48058.56154,unknown,2,2023-02-16T15:32:23.292-08:00,2023-02-14T17:43:35.488-08:00,10103,1.23265,0.6806797,1.921202,7493.222,17,23,2023-02-16T15:32:20.730-08:00,698283143.7,0,-26.32,100.6662,1,0.71,0
2023-02-16T15:32:24.732-08:00,1676590344,34.06378594,-118.4511115,125.9005,0.87,1.54,336.0937479,27.2912144,6.709550415,16.10598543,-9999,48060.0003,0.659790039,0.279220581,0.010910034,48059.96778,2.677115055,1.654454529,-0.384256214,-0.662626505,0.607765496,0.261027217,-0.448539197,-0.113273054,-0.087110765,XArbitraryZVertical,0.732866251,-0.04050497,-0.614277125,-0.28970651,0.923835039,0.374869704,0.077467188,0,0,0,-1,-1,48058.56154,unknown,2,2023-02-16T15:32:23.292-08:00,2023-02-14T17:43:35.488-08:00,10103,1.23265,0.6806797,1.921202,7493.222,17,23,2023-02-16T15:32:20.730-08:00,698283143.7,0,-26.32,100.6662,1,0.71,0
2023-02-16T15:32:24.767-08:00,1676590344,34.06378594,-118.4511115,125.9005,0.87,1.54,336.0937479,27.2912144,6.709550415,16.10598543,-9999,48060.03408,0.844512939,0.353286743,0.071426392,48060.02784,2.722154969,1.701957308,-0.356358914,-0.610336125,0.524721086,0.421214014,-0.114777327,-0.019167632,-0.08619155,XArbitraryZVertical,0.748132309,-0.039777566,-0.606849729,-0.265422459,0.929123521,0.348864228,0.122568414,0,0,0,-1,-1,48058.56154,unknown,2,2023-02-16T15:32:23.292-08:00,2023-02-14T17:43:35.488-08:00,10103,1.23265,0.6806797,1.921202,7493.222,17,23,2023-02-16T15:32:20.730-08:00,698283143.7,0,-26.32,100.6662,1,0.71,0
2023-02-16T15:32:24.802-08:00,1676590344,34.06378594,-118.4511115,125.9005,0.87,1.54,336.0937479,27.2912144,6.709550415,16.10598543,-9999,48060.06787,1.013900757,0.384674072,0.060745239,48060.05786,2.733212537,1.724491047,-0.343098418,-0.327759206,0.682697415,0.347616106,0.006258249,0.004368007,-9.43E-05,XArbitraryZVertical,0.755143011,-0.042929105,-0.601578399,-0.256942707,0.930616081,0.336406529,0.144167751,0,0,0,-1,-1,48058.56154,unknown,2,2023-02-16T15:32:23.292-08:00,2023-02-14T17:43:35.488-08:00,10103,1.23265,0.6806797,1.921202,7493.222,17,23,2023-02-16T15:32:20.730-08:00,698283143.7,0,-26.32,100.6662,1,0.71,0
2023-02-16T15:32:24.837-08:00,1676590344,34.06378594,-118.4511115,125.9005,0.87,1.54,336.0937479,27.2912144,6.709550415,16.10598543,-9999,48060.10166,1.104980469,0.652206421,0.035797119,48060.08789,2.745842643,1.748853466,-0.333046551,-0.482639581,0.673132956,0.182880551,0.12869823,0.116359353,-0.189647928,XArbitraryZVertical,0.762701673,-0.044483493,-0.595221665,-0.249034962,0.930109024,0.326923698,0.16738525,0,0,0,-1,-1,48058.56154,unknown,2,2023-02-16T15:32:23.292-08:00,2023-02-14T17:43:35.488-08:00,10103,1.23265,0.6806797,1.921202,7493.222,17,23,2023-02-16T15:32:20.730-08:00,698283143.7,0,-26.32,100.6662,1,0.71,0
2023-02-16T15:32:24.870-08:00,1676590344,34.06378594,-118.4511115,125.9005,0.87,1.54,336.0937479,27.2912144,6.709550415,16.10598543,-9999,48060.13542,1.115112305,0.609649658,0.006988525,48060.11792,2.754984687,1.7712118,-0.329948583,-0.010084693,0.580196083,-0.08131478,0.249696195,0.418360919,-0.185622111,XArbitraryZVertical,0.769524446,-0.044734459,-0.58817412,-0.244708072,0.927122474,0.323994398,0.188338086,0,0,0,-1,-1,48058.56154,unknown,2,2023-02-16T15:32:23.292-08:00,2023-02-14T17:43:35.488-08:00,10103,1.23265,0.6806797,1.921202,7493.222,17,23,2023-02-16T15:32:20.730-08:00,698283143.7,0,-26.32,100.6662,1,0.71,0
2023-02-16T15:32:24.902-08:00,1676590344,34.06378594,-118.4511115,125.9005,0.87,1.54,336.0937479,27.2912144,6.709550415,16.10598543,-9999,48060.1692,1.053268433,0.581192017,-0.047332764,48060.14794,2.747082031,1.783800079,-0.334067761,0.245932177,0.398902386,-0.061997741,0.211109519,0.271232486,-0.19317925,XArbitraryZVertical,0.773012601,-0.048025971,-0.581829382,-0.248232987,0.923366129,0.327888608,0.199709952,0,0,0,-1,-1,48058.56154,unknown,2,2023-02-16T15:32:23.292-08:00,2023-02-14T17:43:35.488-08:00,10103,1.23265,0.6806797,1.921202,7493.222,17,23,2023-02-16T15:32:20.730-08:00,698283143.7,0,-26.32,100.6662,1,0.71,0
2023-02-16T15:32:24.937-08:00,1676590344,34.06378594,-118.4511115,125.9005,0.87,1.54,336.0937479,27.2912144,6.709550415,16.10598543,-9999,48060.20299,1.366073608,0.650756836,-0.079971313,48060.17797,2.74622221,1.789593801,-0.336399451,0.012029024,-0.028443167,-0.077474006,0.110934377,0.269915551,-0.267756134,XArbitraryZVertical,0.774666279,-0.048342878,-0.579185396,-0.249197294,0.921444595,0.330090493,0.204889759,0,0,0,-1,-1,48058.56154,unknown,2,2023-02-16T15:32:23.292-08:00,2023-02-14T17:43:35.488-08:00,10103,1.23265,0.6806797,1.921202,7493.222,17,23,2023-02-16T15:32:20.730-08:00,698283143.7,0,-26.32,100.6662,1,0.71,0
2023-02-16T15:32:24.993-08:00,1676590344,34.06378594,-118.4511115,125.9005,0.87,1.54,336.0937479,27.2912144,6.709550415,16.10598543,-9999,48060.23678,1.452545166,0.658752441,0.229385376,48060.208,2.73620735,1.776229877,-0.338442813,0.641332269,-0.627706647,0.068455011,0.442635298,0.318738133,-0.272391111,XArbitraryZVertical,0.770533053,-0.049886504,-0.5828286,-0.253181355,0.923438072,0.332018644,0.192419693,0,0,0,-1,-1,48058.56154,unknown,2,2023-02-16T15:32:23.292-08:00,2023-02-14T17:43:35.488-08:00,10103,1.23265,0.6806797,1.921202,7493.222,17,23,2023-02-16T15:32:20.730-08:00,698283143.7,0,-26.32,100.6662,1,0.71,0
2023-02-16T15:32:25.007-08:00,1676590344,34.06378594,-118.4511115,125.9005,0.87,1.54,336.0937479,27.2912144,6.709550415,16.10598543,-9999,48060.27054,1.182922363,0.703201294,0.370071411,48060.23802,2.715943407,1.74619013,-0.341749826,0.68936038,-0.955108464,-0.11348021,0.485691547,0.321068019,0.074151054,XArbitraryZVertical,0.761198071,-0.0527246,-0.591293408,-0.261093446,0.927714884,0.335136235,0.16440478,0,0,0,-1,-1,48058.56154,unknown,2,2023-02-16T15:32:23.292-08:00,2023-02-14T17:43:35.488-08:00,10103,1.23265,0.6806797,1.921202,7493.222,17,23,2023-02-16T15:32:20.730-08:00,698283143.7,0,-26.32,100.6662,1,0.71,0
2023-02-16T15:32:25.037-08:00,1676590344,34.06378594,-118.4511115,125.9005,0.87,1.54,336.0937479,27.2912144,6.709550415,16.10598543,-9999,48060.30432,1.261611938,-0.108963013,0.219345093,48060.29808,2.609775094,1.65469561,-0.3774687,0.890954912,-0.670465767,-0.572045803,0.119338751,-0.701500118,0.1985116,XArbitraryZVertical,0.731023709,-0.067490829,-0.605152501,-0.307960629,0.926330686,0.368568569,0.077901348,0,0,0,-1,-1,48058.56154,unknown,2,2023-02-16T15:32:23.292-08:00,2023-02-14T17:43:35.488-08:00,10103,1.23265,0.6806797,1.921202,7493.222,17,23,2023-02-16T15:32:20.730-08:00,698283143.7,0,-26.32,100.6662,1,0.71,0
2023-02-16T15:32:25.072-08:00,1676590344,34.06378594,-118.4511115,125.9005,0.87,1.54,336.0937479,27.2912144,6.709550415,16.10598543,-9999,48060.33811,1.388427734,0.607086182,0.355636597,48060.3281,2.596568042,1.625560301,-0.395914935,0.551752627,-0.892968297,-0.631559432,0.495075107,-0.093614548,0.249882102,XArbitraryZVertical,0.722134417,-0.061425453,-0.610741408,-0.318972918,0.921260893,0.385652512,0.050502405,0,0,0,-1,-1,48058.56154,unknown,2,2023-02-16T15:32:23.292-08:00,2023-02-14T17:43:35.488-08:00,10103,1.23265,0.6806797,1.921202,7493.222,17,23,2023-02-16T15:32:20.730-08:00,698283143.7,0,-26.32,100.6662,1,0.71,0
2023-02-16T15:32:25.107-08:00,1676590344,34.06378594,-118.4511115,125.9005,0.87,1.54,336.0937479,27.2912144,6.709550415,16.10598543,-9999,48060.3719,0.938674927,0.12538147,0.25163269,48060.35813,2.56714102,1.589647825,-0.418940215,0.525332034,-0.586358607,-0.827280462,0.330446661,0.033972889,0.409034014,XArbitraryZVertical,0.710798511,-0.058099764,-0.614988946,-0.336420212,0.913358331,0.406792551,0.017220212,0,0,0,-1,-1,48058.56154,unknown,2,2023-02-16T15:32:23.292-08:00,2023-02-14T17:43:35.488-08:00,10103,1.23265,0.6806797,1.921202,7493.222,17,23,2023-02-16T15:32:20.730-08:00,698283143.7,0,-26.32,100.6662,1,0.71,0
2023-02-16T15:32:25.138-08:00,1676590344,34.06378594,-118.4511115,125.9005,0.87,1.54,336.0937479,27.2912144,6.709550415,16.10598543,-9999,48060.40566,0.863113403,0.608459473,-0.105575562,48060.38815,2.570006122,1.576267482,-0.444353426,-0.053700507,-0.491558075,-0.750626206,0.042955995,-0.064182132,0.083789945,XArbitraryZVertical,0.707363873,-0.045894021,-0.615890156,-0.343815649,0.902875066,0.429874182,0.004939819,0,0,0,-1,-1,48058.56154,unknown,2,2023-02-16T15:32:23.292-08:00,2023-02-14T17:43:35.488-08:00,10103,1.23265,0.6806797,1.921202,7493.222,17,23,2023-02-16T15:32:20.730-08:00,698283143.7,0,-26.32,100.6662,1,0.71,0
2023-02-16T15:32:25.173-08:00,1676590344,34.06378594,-118.4511115,125.9005,0.87,1.54,336.0937479,27.2912144,6.709550415,16.10598543,-9999,48060.43944,0.629928589,0.201873779,0.083587646,48060.41818,2.541003381,1.547248074,-0.463410403,2.114742041,-0.565779567,-0.549624205,-0.048689008,0.268528968,-0.087076366,XArbitraryZVertical,0.698220481,-0.044235567,-0.617644197,-0.359231157,0.894285262,0.447001427,-0.021062749,0,0,0,-1,-1,48058.56154,unknown,2,2023-02-16T15:32:23.292-08:00,2023-02-14T17:43:35.488-08:00,10103,1.23265,0.6806797,1.921202,7493.222,17,23,2023-02-16T15:32:20.730-08:00,698283143.7,0,-26.32,100.6662,1,0.71,0
2023-02-16T15:32:25.208-08:00,1676590345,34.0637933,-118.4511162,126.1935,0.97,1.81,336.0937476,28.35812923,6.665157685,16.12440716,-9999,48060.47323,0.404251099,0.24395752,-0.072921753,48060.44821,2.472810157,1.50318882,-0.477258297,1.150350809,-0.293884277,-0.592952073,-0.328840077,-0.401957303,0.126932085,XArbitraryZVertical,0.683383963,-0.054614922,-0.617607955,-0.385439823,0.886228263,0.459345579,-0.060007136,0,0,0,-1,-1,48058.56154,unknown,2,2023-02-16T15:32:23.292-08:00,2023-02-14T17:43:35.488-08:00,10103,1.23265,0.6806797,1.921202,7493.222,17,23,2023-02-16T15:32:20.730-08:00,698283143.7,0,-26.32,100.6662,1,0.71,0
2023-02-16T15:32:25.242-08:00,1676590345,34.0637933,-118.4511162,126.1935,0.97,1.81,336.0937476,28.35812923,6.665157685,16.12440716,-9999,48060.50702,0.408996582,0.155197144,-0.041442871,48060.47823,2.437459665,1.480989738,-0.492275578,0.972758293,-0.125040546,-0.499827236,-0.473457158,-0.228675008,0.006114721,XArbitraryZVertical,0.676205634,-0.056812429,-0.615290269,-0.401168467,0.877708197,0.472632498,-0.079036579,0,0,0,-1,-1,48058.56154,unknown,2,2023-02-16T15:32:23.292-08:00,2023-02-14T17:43:35.488-08:00,10103,1.23265,0.6806797,1.921202,7493.222,17,23,2023-02-16T15:32:20.730-08:00,698283143.7,0,-26.32,100.6662,1,0.71,0
2023-02-16T15:32:25.273-08:00,1676590345,34.0637933,-118.4511162,126.1935,0.97,1.81,336.0937476,28.35812923,6.665157685,16.12440716,-9999,48060.54078,0.485549927,-0.002532959,0.182342529,48060.50826,2.406174738,1.463412193,-0.50194435,0.792575359,-0.063401617,-0.302089572,-0.479204118,-0.323309362,0.038537323,XArbitraryZVertical,0.670368216,-0.060231083,-0.612899721,-0.413923404,0.871599078,0.481130958,-0.093957342,0,0,0,-1,-1,48058.56154,unknown,2,2023-02-16T15:32:23.292-08:00,2023-02-14T17:43:35.488-08:00,10103,1.23265,0.6806797,1.921202,7493.222,17,23,2023-02-16T15:32:20.730-08:00,698283143.7,0,-26.32,100.6662,1,0.71,0
