loggingTime(txt),locationTimestamp_since1970(s),locationLatitude(WGS84),locationLongitude(WGS84),locationAltitude(m),locationSpeed(m/s),locationSpeedAccuracy(m/s),locationCourse(°),locationCourseAccuracy(°),locationVerticalAccuracy(m),locationHorizontalAccuracy(m),locationFloor(Z),accelerometerTimestamp_sinceReboot(s),accelerometerAccelerationX(G),accelerometerAccelerationY(G),accelerometerAccelerationZ(G),motionTimestamp_sinceReboot(s),motionYaw(rad),motionRoll(rad),motionPitch(rad),motionRotationRateX(rad/s),motionRotationRateY(rad/s),motionRotationRateZ(rad/s),motionUserAccelerationX(G),motionUserAccelerationY(G),motionUserAccelerationZ(G),motionAttitudeReferenceFrame(txt),motionQuaternionX(R),motionQuaternionY(R),motionQuaternionZ(R),motionQuaternionW(R),motionGravityX(G),motionGravityY(G),motionGravityZ(G),motionMagneticFieldX(µT),motionMagneticFieldY(µT),motionMagneticFieldZ(µT),motionHeading(°),motionMagneticFieldCalibrationAccuracy(Z),activityTimestamp_sinceReboot(s),activity(txt),activityActivityConfidence(Z),activityActivityStartDate(txt),pedometerStartDate(txt),pedometerNumberofSteps(N),pedometerAverageActivePace(s/m),pedometerCurrentPace(s/m),pedometerCurrentCadence(steps/s),pedometerDistance(m),pedometerFloorAscended(N),pedometerFloorDescended(N),pedometerEndDate(txt),altimeterTimestamp_sinceReboot(s),altimeterReset(bool),altimeterRelativeAltitude(m),altimeterPressure(kPa),batteryState(N),batteryLevel(R),label
2023-02-21T13:09:34.369-08:00,1677013773,34.06364035,-118.4510332,137.8938,0.72,0.94,103.0078168,64.99411988,12,15.35094851,-9999,332846.9687,-0.187545776,-0.153335571,-0.996124268,332846.9487,0.211031677,-0.152355323,0.291155147,0.164703757,0.133950353,0.034412734,-0.055579051,0.082408071,-0.085775971,XArbitraryZVertical,0.151769275,-0.05964637,0.092925355,0.982228671,-0.145379171,-0.287058949,-0.946816802,0,0,0,-1,-1,332829.6131,walking,2,2023-02-21T13:09:17.012-08:00,2023-02-14T17:43:35.488-08:00,36557,1.290916,0.8265508,1.768325,27144.85,72,85,2023-02-21T13:09:32.386-08:00,698706572.5,0,5.850002,99.21378,1,0.55,0
2023-02-21T13:09:34.404-08:00,1677013773,34.06364035,-118.4510332,137.8938,0.72,0.94,103.0078168,64.99411988,12,15.35094851,-9999,332847.0038,-0.144882202,-0.192108154,-0.981567383,332846.9787,0.212121376,-0.149499731,0.296180203,0.113684662,0.074978791,0.009980427,-0.045087531,0.138533354,-0.050334513,XArbitraryZVertical,0.154129873,-0.057871578,0.093453775,0.981917058,-0.142458215,-0.291868865,-0.945789754,0,0,0,-1,-1,332829.6131,walking,2,2023-02-21T13:09:17.012-08:00,2023-02-14T17:43:35.488-08:00,36557,1.290916,0.8265508,1.768325,27144.85,72,85,2023-02-21T13:09:32.386-08:00,698706572.5,0,5.850002,99.21378,1,0.55,0
2023-02-21T13:09:34.439-08:00,1677013773,34.06364035,-118.4510332,137.8938,0.72,0.94,103.0078168,64.99411988,12,15.35094851,-9999,332847.0388,-0.161880493,-0.242599487,-0.920715332,332847.0088,0.210338366,-0.14708757,0.293082609,-0.218383342,0.080191724,-0.099287778,-0.02116026,0.112864107,-0.030869603,XArbitraryZVertical,0.152448758,-0.05700155,0.092899862,0.982282932,-0.140308231,-0.288904756,-0.947020411,0,0,0,-1,-1,332829.6131,walking,2,2023-02-21T13:09:17.012-08:00,2023-02-14T17:43:35.488-08:00,36557,1.290916,0.8265508,1.768325,27144.85,72,85,2023-02-21T13:09:32.386-08:00,698706572.5,0,5.850002,99.21378,1,0.55,0
2023-02-21T13:09:34.474-08:00,1677013773,34.06364035,-118.4510332,137.8938,0.72,0.94,103.0078168,64.99411988,12,15.35094851,-9999,332847.0738,-0.132705688,-0.220626831,-0.887359619,332847.0688,0.202692565,-0.139935993,0.276778329,-0.132995471,0.096336074,-0.00280664,-0.004821047,0.041293889,0.074592769,XArbitraryZVertical,0.143909715,-0.054964813,0.090365867,0.983922114,-0.134171247,-0.273258001,-0.952537715,0,0,0,-1,-1,332829.6131,walking,2,2023-02-21T13:09:17.012-08:00,2023-02-14T17:43:35.488-08:00,36557,1.290916,0.8265508,1.768325,27144.85,72,85,2023-02-21T13:09:32.386-08:00,698706572.5,0,5.850002,99.21378,1,0.55,0
2023-02-21T13:09:34.509-08:00,1677013773,34.06364035,-118.4510332,137.8938,0.72,0.94,103.0078168,64.99411988,12,15.35094851,-9999,332847.1088,-0.153839111,-0.225509644,-0.928024292,332847.0988,0.202581917,-0.138198481,0.270099501,-0.132000893,0.062819466,-0.024186265,0.010770455,0.040737867,0.050030053,XArbitraryZVertical,0.140547895,-0.054482949,0.090709575,0.984403151,-0.132764459,-0.266827345,-0.954555809,0,0,0,-1,-1,332829.6131,walking,2,2023-02-21T13:09:17.012-08:00,2023-02-14T17:43:35.488-08:00,36557,1.290916,0.8265508,1.768325,27144.85,72,85,2023-02-21T13:09:32.386-08:00,698706572.5,0,5.850002,99.21378,1,0.55,0
2023-02-21T13:09:34.545-08:00,1677013773,34.06364035,-118.4510332,137.8938,0.72,0.94,103.0078168,64.99411988,12,15.35094851,-9999,332847.1439,-0.133743286,-0.273345947,-0.825958252,332847.1289,0.200840879,-0.136807052,0.265714239,-0.053784013,0.080082007,-0.038271293,-0.020383075,0.020578861,0.046053767,XArbitraryZVertical,0.138282888,-0.054157598,0.090127389,0.984795292,-0.131594449,-0.262598515,-0.955889583,0,0,0,-1,-1,332829.6131,walking,2,2023-02-21T13:09:17.012-08:00,2023-02-14T17:43:35.488-08:00,36557,1.290916,0.8265508,1.768325,27144.85,72,85,2023-02-21T13:09:32.386-08:00,698706572.5,0,5.850002,99.21378,1,0.55,0
2023-02-21T13:09:34.581-08:00,1677013773,34.06364035,-118.4510332,137.8938,0.72,0.94,103.0078168,64.99411988,12,15.35094851,-9999,332847.1789,-0.138412476,-0.254699707,-0.846817017,332847.1589,0.198100937,-0.134924746,0.26450647,-0.020794157,0.048679605,-0.102221116,-0.00836134,-0.018932074,0.131299675,XArbitraryZVertical,0.13753118,-0.05348442,0.088956227,0.985043825,-0.129837498,-0.261432946,-0.956449211,0,0,0,-1,-1,332829.6131,walking,2,2023-02-21T13:09:17.012-08:00,2023-02-14T17:43:35.488-08:00,36557,1.290916,0.8265508,1.768325,27144.85,72,85,2023-02-21T13:09:32.386-08:00,698706572.5,0,5.850002,99.21378,1,0.55,0
2023-02-21T13:09:34.615-08:00,1677013773,34.06364035,-118.4510332,137.8938,0.72,0.94,103.0078168,64.99411988,12,15.35094851,-9999,332847.2139,-0.163192749,-0.265853882,-0.877441406,332847.1889,0.19520099,-0.133556733,0.264330498,-0.110850915,-0.023495853,-0.130126476,-0.009877384,0.006563365,0.10985446,XArbitraryZVertical,0.137307053,-0.053019155,0.087628767,0.985219182,-0.128535077,-0.261263072,-0.956671476,0,0,0,-1,-1,332829.6131,walking,2,2023-02-21T13:09:17.012-08:00,2023-02-14T17:43:35.488-08:00,36557,1.290916,0.8265508,1.768325,27144.85,72,85,2023-02-21T13:09:32.386-08:00,698706572.5,0,5.850002,99.21378,1,0.55,0
2023-02-21T13:09:34.650-08:00,1677013773,34.06364035,-118.4510332,137.8938,0.72,0.94,103.0078168,64.99411988,12,15.35094851,-9999,332847.249,-0.192260742,-0.268295288,-0.858337402,332847.2189,0.191407122,-0.135246137,0.257152543,-0.278270841,-0.10154105,-0.075413331,0.012221292,-0.026098251,0.085773706,XArbitraryZVertical,0.133747498,-0.054482507,0.085927622,0.985778684,-0.130400598,-0.254327774,-0.958286524,0,0,0,-1,-1,332829.6131,walking,2,2023-02-21T13:09:17.012-08:00,2023-02-14T17:43:35.488-08:00,36557,1.290916,0.8265508,1.768325,27144.85,72,85,2023-02-21T13:09:32.386-08:00,698706572.5,0,5.850002,99.21378,1,0.55,0
2023-02-21T13:09:34.685-08:00,1677013773,34.06364035,-118.4510332,137.8938,0.72,0.94,103.0078168,64.99411988,12,15.35094851,-9999,332847.284,-0.178573608,-0.293121338,-0.871536255,332847.279,0.189032366,-0.138624318,0.257026874,0.154876903,-0.035094317,-0.030132171,-0.050928771,-0.040639341,0.102968037,XArbitraryZVertical,0.13376384,-0.05631286,0.084536198,0.985793958,-0.133641526,-0.25420621,-0.957872212,0,0,0,-1,-1,332829.6131,walking,2,2023-02-21T13:09:17.012-08:00,2023-02-14T17:43:35.488-08:00,36557,1.290916,0.8265508,1.768325,27144.85,72,85,2023-02-21T13:09:32.386-08:00,698706572.5,0,5.850002,99.21378,1,0.55,0
2023-02-21T13:09:34.720-08:00,1677013773,34.06364035,-118.4510332,137.8938,0.72,0.94,103.0078168,64.99411988,12,15.35094851,-9999,332847.319,-0.211959839,-0.310546875,-0.938339233,332847.309,0.188098941,-0.13961172,0.26138209,0.061659653,-0.037846893,-0.05302833,-0.042158023,-0.024710864,0.059936345,XArbitraryZVertical,0.135921765,-0.05664015,0.083833761,0.985539945,-0.134431928,-0.258415937,-0.956634343,0,0,0,-1,-1,332829.6131,walking,2,2023-02-21T13:09:17.012-08:00,2023-02-14T17:43:35.488-08:00,36557,1.290916,0.8265508,1.768325,27144.85,72,85,2023-02-21T13:09:32.386-08:00,698706572.5,0,5.850002,99.21378,1,0.55,0
2023-02-21T13:09:34.755-08:00,1677013773,34.06364035,-118.4510332,137.8938,0.72,0.94,103.0078168,64.99411988,12,15.35094851,-9999,332847.3541,-0.146057129,-0.306762695,-0.971496582,332847.3391,0.185982392,-0.141696696,0.261914081,-0.042114362,-0.078579679,-0.088397905,-0.052252889,-0.038509727,0.003579021,XArbitraryZVertical,0.136209669,-0.05778456,0.082627257,0.985535722,-0.136406764,-0.258929819,-0.956215739,0,0,0,-1,-1,332829.6131,walking,2,2023-02-21T13:09:17.012-08:00,2023-02-14T17:43:35.488-08:00,36557,1.290916,0.8265508,1.768325,27144.85,72,85,2023-02-21T13:09:32.386-08:00,698706572.5,0,5.850002,99.21378,1,0.55,0
2023-02-21T13:09:34.803-08:00,1677013774,34.0636255,-118.4510215,138.1507,0.72,1.22,129.7265659,68.32464306,8.476292762,15.43856119,-9999,332847.3891,-0.105026245,-0.285705566,-0.99180603,332847.3691,0.184652237,-0.146221991,0.262355372,-0.017148715,-0.108226255,0.021661881,-0.003052458,-0.056226224,-0.01794368,XArbitraryZVertical,0.13657338,-0.06008282,0.081644902,0.9854298,-0.140715837,-0.259356052,-0.955475509,0,0,0,-1,-1,332829.6131,walking,2,2023-02-21T13:09:17.012-08:00,2023-02-14T17:43:35.488-08:00,36557,1.290916,0.8265508,1.768325,27144.85,72,85,2023-02-21T13:09:32.386-08:00,698706572.5,0,5.850002,99.21378,1,0.55,0
2023-02-21T13:09:34.825-08:00,1677013774,34.0636255,-118.4510215,138.1507,0.72,1.22,129.7265659,68.32464306,8.476292762,15.43856119,-9999,332847.4241,-0.137039185,-0.288482666,-1.057189941,332847.3991,0.186684534,-0.151745581,0.262733372,-0.074855745,-0.131254137,0.062330917,0.040950269,-0.025984496,-0.037219286,XArbitraryZVertical,0.137047943,-0.062645822,0.082252093,0.985153757,-0.145976499,-0.2597211,-0.954586744,0,0,0,-1,-1,332829.6131,walking,2,2023-02-21T13:09:17.012-08:00,2023-02-14T17:43:35.488-08:00,36557,1.290916,0.8265508,1.768325,27144.85,72,85,2023-02-21T13:09:32.386-08:00,698706572.5,0,5.850002,99.21378,1,0.55,0
2023-02-21T13:09:34.860-08:00,1677013774,34.0636255,-118.4510215,138.1507,0.72,1.22,129.7265659,68.32464306,8.476292762,15.43856119,-9999,332847.4592,-0.056060791,-0.286621094,-0.990463257,332847.4291,0.188582153,-0.158083474,0.259636644,-0.229983002,-0.183637261,0.098141812,0.017521203,-0.024657935,-0.106633604,XArbitraryZVertical,0.135848154,-0.065797031,0.082891479,0.985060932,-0.152149484,-0.256729394,-0.95443207,0,0,0,-1,-1,332829.6131,walking,2,2023-02-21T13:09:17.012-08:00,2023-02-14T17:43:35.488-08:00,36557,1.290916,0.8265508,1.768325,27144.85,72,85,2023-02-21T13:09:32.386-08:00,698706572.5,0,5.850002,99.21378,1,0.55,0
2023-02-21T13:09:34.895-08:00,1677013774,34.0636255,-118.4510215,138.1507,0.72,1.22,129.7265659,68.32464306,8.476292762,15.43856119,-9999,332847.4942,-0.102661133,-0.267974854,-1.112518311,332847.4892,0.198171242,-0.169342286,0.224303347,-1.002653956,-0.12592423,0.321452022,0.070623249,-0.06292738,-0.095484555,XArbitraryZVertical,0.119282206,-0.072594961,0.08853155,0.986237225,-0.164312184,-0.222427219,-0.961003482,0,0,0,-1,-1,332829.6131,walking,2,2023-02-21T13:09:17.012-08:00,2023-02-14T17:43:35.488-08:00,36557,1.290916,0.8265508,1.768325,27144.85,72,85,2023-02-21T13:09:32.386-08:00,698706572.5,0,5.850002,99.21378,1,0.55,0
2023-02-21T13:09:34.930-08:00,1677013774,34.0636255,-118.4510215,138.1507,0.72,1.22,129.7265659,68.32464306,8.476292762,15.43856119,-9999,332847.5292,-0.127700806,-0.123199463,-1.111541748,332847.5192,0.203425934,-0.174517873,0.189660959,-1.068789124,-0.139149755,0.402310133,0.09559916,-0.005245417,-0.158383131,XArbitraryZVertical,0.102649711,-0.076730438,0.092487606,0.987431778,-0.170519799,-0.188525945,-0.967150927,0,0,0,-1,-1,332829.6131,walking,2,2023-02-21T13:09:17.012-08:00,2023-02-14T17:43:35.488-08:00,36557,1.290916,0.8265508,1.768325,27144.85,72,85,2023-02-21T13:09:32.386-08:00,698706572.5,0,5.850002,99.21378,1,0.55,0
2023-02-21T13:09:34.965-08:00,1677013774,34.0636255,-118.4510215,138.1507,0.72,1.22,129.7265659,68.32464306,8.476292762,15.43856119,-9999,332847.5643,-0.143768311,-0.136825562,-1.069564819,332847.5492,0.20809195,-0.179708837,0.164166891,-0.520016551,-0.154633701,0.192987442,0.02941303,0.068047807,-0.137593925,XArbitraryZVertical,0.090507123,-0.080466664,0.095773509,0.988008588,-0.17633988,-0.163430482,-0.970667124,0,0,0,-1,-1,332829.6131,walking,2,2023-02-21T13:09:17.012-08:00,2023-02-14T17:43:35.488-08:00,36557,1.290916,0.8265508,1.768325,27144.85,72,85,2023-02-21T13:09:32.386-08:00,698706572.5,0,5.850002,99.21378,1,0.55,0
2023-02-21T13:09:35.000-08:00,1677013774,34.0636255,-118.4510215,138.1507,0.72,1.22,129.7265659,68.32464306,8.476292762,15.43856119,-9999,332847.5993,-0.096725464,-0.111221313,-1.005828857,332847.5793,0.21159655,-0.183964883,0.151711329,-0.340532333,-0.098839939,0.221483797,0.047069311,0.003363907,-0.084608436,XArbitraryZVertical,0.084712491,-0.083107621,0.097930258,0.988092339,-0.180827841,-0.151130021,-0.971833825,0,0,0,-1,-1,332829.6131,walking,2,2023-02-21T13:09:17.012-08:00,2023-02-14T17:43:35.488-08:00,36557,1.290916,0.8265508,1.768325,27144.85,72,85,2023-02-21T13:09:32.386-08:00,698706572.5,0,5.850002,99.21378,1,0.55,0
2023-02-21T13:09:35.036-08:00,1677013774,34.0636255,-118.4510215,138.1507,0.72,1.22,129.7265659,68.32464306,8.476292762,15.43856119,-9999,332847.6343,-0.157577515,-0.095169067,-1.014602661,332847.6093,0.218592349,-0.187125051,0.137875956,-0.425129503,-0.049487837,0.366161615,0.087544009,0.026218221,-0.03260988,XArbitraryZVertical,0.078339477,-0.085167182,0.101946554,0.988036597,-0.184269458,-0.137439534,-0.973218977,0,0,0,-1,-1,332829.6131,walking,2,2023-02-21T13:09:17.012-08:00,2023-02-14T17:43:35.488-08:00,36557,1.291021,1.296136,1.768325,27144.85,72,85,2023-02-21T13:09:34.948-08:00,698706575,0,5.850002,99.21422,1,0.55,0
2023-02-21T13:09:35.070-08:00,1677013774,34.0636255,-118.4510215,138.1507,0.72,1.22,129.7265659,68.32464306,8.476292762,15.43856119,-9999,332847.6693,-0.130142212,-0.034713745,-0.979553223,332847.6393,0.226664376,-0.188874512,0.127372006,-0.118907087,0.005645255,0.247149706,0.049529105,0.033537269,-0.060698509,XArbitraryZVertical,0.07359531,-0.086336778,0.106394742,0.987830869,-0.186232582,-0.127027884,-0.974259377,0,0,0,-1,-1,332829.6131,walking,2,2023-02-21T13:09:17.012-08:00,2023-02-14T17:43:35.488-08:00,36557,1.291021,1.296136,1.768325,27144.85,72,85,2023-02-21T13:09:34.948-08:00,698706575,0,5.850002,99.21422,1,0.55,0
2023-02-21T13:09:35.111-08:00,1677013774,34.0636255,-118.4510215,138.1507,0.72,1.22,129.7265659,68.32464306,8.476292762,15.43856119,-9999,332847.7044,-0.160888672,-0.123916626,-0.904144287,332847.6994,0.232340176,-0.183459839,0.127529538,0.087257691,0.1942105,0.003899299,-0.001528919,0.040804118,0.046766996,XArbitraryZVertical,0.073621817,-0.08344417,0.109389452,0.987750395,-0.180950925,-0.127184138,-0.975233793,0,0,0,-1,-1,332829.6131,walking,2,2023-02-21T13:09:17.012-08:00,2023-02-14T17:43:35.488-08:00,36557,1.291021,1.296136,1.768325,27144.85,72,85,2023-02-21T13:09:34.948-08:00,698706575,0,5.850002,99.21422,1,0.55,0
2023-02-21T13:09:35.140-08:00,1677013774,34.0636255,-118.4510215,138.1507,0.72,1.22,129.7265659,68.32464306,8.476292762,15.43856119,-9999,332847.7394,-0.117889404,-0.106933594,-0.888381958,332847.7294,0.235754046,-0.178375976,0.131539338,0.166221634,0.133155555,0.135701329,0.044963107,-0.004368231,0.097991645,XArbitraryZVertical,0.075459122,-0.08056197,0.111070304,0.987663372,-0.175898746,-0.131160334,-0.975631356,0,0,0,-1,-1,332829.6131,walking,2,2023-02-21T13:09:17.012-08:00,2023-02-14T17:43:35.488-08:00,36557,1.291021,1.296136,1.768325,27144.85,72,85,2023-02-21T13:09:34.948-08:00,698706575,0,5.850002,99.21422,1,0.55,0
2023-02-21T13:09:35.175-08:00,1677013774,34.0636255,-118.4510215,138.1507,0.72,1.22,129.7265659,68.32464306,8.476292762,15.43856119,-9999,332847.7744,-0.170120239,-0.130462646,-0.883987427,332847.7594,0.240097865,-0.176301688,0.135972124,0.182696819,0.055379651,0.055669285,0.038364485,0.042062923,0.06398946,XArbitraryZVertical,0.077701884,-0.079096984,0.113082574,0.987379579,-0.173770949,-0.135553524,-0.97541219,0,0,0,-1,-1,332829.6131,walking,2,2023-02-21T13:09:17.012-08:00,2023-02-14T17:43:35.488-08:00,36557,1.291021,1.296136,1.768325,27144.85,72,85,2023-02-21T13:09:34.948-08:00,698706575,0,5.850002,99.21422,1,0.55,0
2023-02-21T13:09:35.210-08:00,1677013774,34.0636255,-118.4510215,138.1507,0.72,1.22,129.7265659,68.32464306,8.476292762,15.43856119,-9999,332847.8095,-0.158981323,-0.177047729,-0.84803772,332847.7895,0.239960847,-0.175144398,0.139120851,0.022080498,0.040093642,-0.090977147,-0.007120714,-0.002837509,0.108823955,XArbitraryZVertical,0.079183307,-0.078334284,0.112910596,0.987342289,-0.172566772,-0.138672516,-0.97518748,0,0,0,-1,-1,332829.6131,walking,2,2023-02-21T13:09:17.012-08:00,2023-02-14T17:43:35.488-08:00,36557,1.291021,1.296136,1.768325,27144.85,72,85,2023-02-21T13:09:34.948-08:00,698706575,0,5.850002,99.21422,1,0.55,0
2023-02-21T13:09:35.245-08:00,1677013775,34.06360711,-118.451012,138.2697,0.79,0.96,149.7656274,54.74394229,8.50087713,15.4004227,-9999,332847.8445,-0.150497437,-0.170181274,-0.878616333,332847.8195,0.236124938,-0.17331539,0.137958705,-0.100071557,0.034858935,-0.082655698,0.011829227,-0.039526239,0.12762183,XArbitraryZVertical,0.078358282,-0.07765433,0.111143478,0.987662327,-0.170810536,-0.137521505,-0.975659549,0,0,0,-1,-1,332829.6131,walking,2,2023-02-21T13:09:17.012-08:00,2023-02-14T17:43:35.488-08:00,36557,1.291021,1.296136,1.768325,27144.85,72,85,2023-02-21T13:09:34.948-08:00,698706575,0,5.850002,99.21422,1,0.55,0
2023-02-21T13:09:35.280-08:00,1677013775,34.06360711,-118.451012,138.2697,0.79,0.96,149.7656274,54.74394229,8.50087713,15.4004227,-9999,332847.8795,-0.159454346,-0.225250244,-0.900665283,332847.8495,0.234939137,-0.172408738,0.136107243,0.033450227,-0.00406929,0.002172505,0.021653861,-0.036202878,0.102512777,XArbitraryZVertical,0.077348958,-0.077366265,0.110679737,0.987816494,-0.169969276,-0.135687396,-0.976063192,0,0,0,-1,-1,332829.6131,walking,2,2023-02-21T13:09:17.012-08:00,2023-02-14T17:43:35.488-08:00,36557,1.291021,1.296136,1.768325,27144.85,72,85,2023-02-21T13:09:34.948-08:00,698706575,0,5.850002,99.21422,1,0.55,0
2023-02-21T13:09:35.315-08:00,1677013775,34.06360711,-118.451012,138.2697,0.79,0.96,149.7656274,54.74394229,8.50087713,15.4004227,-9999,332847.9146,-0.134841919,-0.208114624,-0.902740479,332847.9096,0.231752686,-0.175951875,0.150189529,0.26026547,-0.109614491,-0.103095531,0.02471368,-0.056413889,0.072277606,XArbitraryZVertical,0.084362664,-0.078386773,0.108297871,0.987425968,-0.173074856,-0.149625525,-0.973476887,0,0,0,-1,-1,332829.6131,walking,2,2023-02-21T13:09:17.012-08:00,2023-02-14T17:43:35.488-08:00,36557,1.291021,1.296136,1.768325,27144.85,72,85,2023-02-21T13:09:34.948-08:00,698706575,0,5.850002,99.21422,1,0.55,0
2023-02-21T13:09:35.350-08:00,1677013775,34.06360711,-118.451012,138.2697,0.79,0.96,149.7656274,54.74394229,8.50087713,15.4004227,-9999,332847.9496,-0.174682617,-0.236099243,-0.948928833,332847.9396,0.229882413,-0.180010666,0.159414464,0.321528584,-0.160601169,-0.117418177,0.016628936,-0.049405038,0.032768428,XArbitraryZVertical,0.089053206,-0.079912429,0.106751819,0.987060008,-0.176769912,-0.158740118,-0.971367061,0,0,0,-1,-1,332829.6131,walking,2,2023-02-21T13:09:17.012-08:00,2023-02-14T17:43:35.488-08:00,36557,1.291021,1.296136,1.768325,27144.85,72,85,2023-02-21T13:09:34.948-08:00,698706575,0,5.850002,99.21422,1,0.55,0
2023-02-21T13:09:35.386-08:00,1677013775,34.06360711,-118.451012,138.2697,0.79,0.96,149.7656274,54.74394229,8.50087713,15.4004227,-9999,332847.9846,-0.149414063,-0.197463989,-0.960571289,332847.9696,0.22858997,-0.184246162,0.16925593,0.211101651,-0.140009344,-0.053982742,0.012374699,-0.063576192,0.025072396,XArbitraryZVertical,0.094073301,-0.081466433,0.10543115,0.986609147,-0.180587575,-0.168448955,-0.969026864,0,0,0,-1,-1,332829.6131,walking,2,2023-02-21T13:09:17.012-08:00,2023-02-14T17:43:35.488-08:00,36557,1.291021,1.296136,1.768325,27144.85,72,85,2023-02-21T13:09:34.948-08:00,698706575,0,5.850002,99.21422,1,0.55,0
2023-02-21T13:09:35.420-08:00,1677013775,34.06360711,-118.451012,138.2697,0.79,0.96,149.7656274,54.74394229,8.50087713,15.4004227,-9999,332848.0197,-0.145996094,-0.232757568,-1.008026123,332847.9996,0.228800649,-0.188128798,0.176537876,0.144243315,-0.189805731,-0.042775862,0.037813053,-0.027823105,-0.000227869,XArbitraryZVertical,0.097870941,-0.082930095,0.104978031,0.986166034,-0.184114277,-0.175622314,-0.967087746,0,0,0,-1,-1,332829.6131,walking,2,2023-02-21T13:09:17.012-08:00,2023-02-14T17:43:35.488-08:00,36557,1.291021,1.296136,1.768325,27144.85,72,85,2023-02-21T13:09:34.948-08:00,698706575,0,5.850002,99.21422,1,0.55,0
2023-02-21T13:09:35.455-08:00,1677013775,34.06360711,-118.451012,138.2697,0.79,0.96,149.7656274,54.74394229,8.50087713,15.4004227,-9999,332848.0547,-0.189315796,-0.191329956,-1.029205322,332848.0297,0.228365882,-0.193859332,0.1781309,-0.056699373,-0.177755728,0.01773116,0.043602943,-0.05556722,-0.042285085,XArbitraryZVertical,0.098936425,-0.085679969,0.104398569,0.985886091,-0.189599022,-0.177190363,-0.965741038,0,0,0,-1,-1,332829.6131,walking,2,2023-02-21T13:09:17.012-08:00,2023-02-14T17:43:35.488-08:00,36557,1.291021,1.296136,1.768325,27144.85,72,85,2023-02-21T13:09:34.948-08:00,698706575,0,5.850002,99.21422,1,0.55,0
2023-02-21T13:09:35.491-08:00,1677013775,34.06360711,-118.451012,138.2697,0.79,0.96,149.7656274,54.74394229,8.50087713,15.4004227,-9999,332848.0897,-0.185012817,-0.177734375,-1.123306274,332848.0597,0.229909671,-0.197971495,0.17389616,-0.078928195,-0.088059068,0.080519013,0.027195409,-0.032408014,-0.056719601,XArbitraryZVertical,0.09713565,-0.087889301,0.105184062,0.985787185,-0.193714544,-0.173021048,-0.965680301,0,0,0,-1,-1,332829.6131,walking,2,2023-02-21T13:09:17.012-08:00,2023-02-14T17:43:35.488-08:00,36557,1.291021,1.296136,1.768325,27144.85,72,85,2023-02-21T13:09:34.948-08:00,698706575,0,5.850002,99.21422,1,0.55,0
2023-02-21T13:09:35.526-08:00,1677013775,34.06360711,-118.451012,138.2697,0.79,0.96,149.7656274,54.74394229,8.50087713,15.4004227,-9999,332848.1248,-0.17489624,-0.191726685,-1.103103638,332848.1197,0.240147799,-0.196751917,0.178754962,-0.060062628,0.078144222,0.210569844,-0.004117355,0.011300594,-0.16492492,XArbitraryZVertical,0.099905466,-0.086480775,0.11002699,0.985106012,-0.192370057,-0.177804515,-0.965079963,0,0,0,-1,-1,332829.6131,walking,2,2023-02-21T13:09:17.012-08:00,2023-02-14T17:43:35.488-08:00,36557,1.291021,1.296136,1.768325,27144.85,72,85,2023-02-21T13:09:34.948-08:00,698706575,0,5.850002,99.21422,1,0.55,0
2023-02-21T13:09:35.561-08:00,1677013775,34.06360711,-118.451012,138.2697,0.79,0.96,149.7656274,54.74394229,8.50087713,15.4004227,-9999,332848.1598,-0.211639404,-0.119873047,-1.057556152,332848.1498,0.243292499,-0.192818265,0.174744928,-0.06618619,0.173118591,0.04738469,-0.013563082,0.027967691,-0.114579201,XArbitraryZVertical,0.097850506,-0.084644357,0.111984528,0.985251273,-0.188707411,-0.173856959,-0.966521204,0,0,0,-1,-1,332829.6131,walking,2,2023-02-21T13:09:17.012-08:00,2023-02-14T17:43:35.488-08:00,36557,1.291021,1.296136,1.768325,27144.85,72,85,2023-02-21T13:09:34.948-08:00,698706575,0,5.850002,99.21422,1,0.55,0
2023-02-21T13:09:35.596-08:00,1677013775,34.06360711,-118.451012,138.2697,0.79,0.96,149.7656274,54.74394229,8.50087713,15.4004227,-9999,332848.1948,-0.211181641,-0.107223511,-1.011734009,332848.1798,0.243447238,-0.187828955,0.176482262,0.149844632,0.147908449,-0.053586729,-0.0396083,0.071182191,-0.061045706,XArbitraryZVertical,0.098431462,-0.082066986,0.11221477,0.985385269,-0.183826119,-0.175567567,-0.967152536,0,0,0,-1,-1,332829.6131,walking,2,2023-02-21T13:09:17.012-08:00,2023-02-14T17:43:35.488-08:00,36557,1.291021,1.296136,1.768325,27144.85,72,85,2023-02-21T13:09:34.948-08:00,698706575,0,5.850002,99.21422,1,0.55,0
2023-02-21T13:09:35.631-08:00,1677013775,34.06360711,-118.451012,138.2697,0.79,0.96,149.7656274,54.74394229,8.50087713,15.4004227,-9999,332848.2298,-0.156280518,-0.105575562,-0.969207764,332848.2098,0.242949264,-0.184146569,0.17937878,-0.047588911,0.075750239,0.01055091,-0.01416634,0.071423709,-0.047466874,XArbitraryZVertical,0.099629112,-0.080091218,0.112003249,0.985451465,-0.180169582,-0.178418353,-0.967318892,0,0,0,-1,-1,332829.6131,walking,2,2023-02-21T13:09:17.012-08:00,2023-02-14T17:43:35.488-08:00,36557,1.291021,1.296136,1.768325,27144.85,72,85,2023-02-21T13:09:34.948-08:00,698706575,0,5.850002,99.21422,1,0.55,0
2023-02-21T13:09:35.666-08:00,1677013775,34.06360711,-118.451012,138.2697,0.79,0.96,149.7656274,54.74394229,8.50087713,15.4004227,-9999,332848.2649,-0.154037476,-0.066131592,-0.889282227,332848.2399,0.243833553,-0.182701045,0.172429443,-0.309798926,0.056170017,0.125782892,0.02271156,0.0660007,-0.000433564,XArbitraryZVertical,0.096165385,-0.079781746,0.112861318,0.985722748,-0.178992063,-0.171576276,-0.968774199,0,0,0,-1,-1,332829.6131,walking,2,2023-02-21T13:09:17.012-08:00,2023-02-14T17:43:35.488-08:00,36557,1.291021,1.296136,1.768325,27144.85,72,85,2023-02-21T13:09:34.948-08:00,698706575,0,5.850002,99.21422,1,0.55,0
2023-02-21T13:09:35.701-08:00,1677013775,34.06360711,-118.451012,138.2697,0.79,0.96,149.7656274,54.74394229,8.50087713,15.4004227,-9999,332848.2999,-0.217834473,-0.093063354,-0.916015625,332848.2699,0.24487539,-0.181843871,0.160624647,-0.372190326,0.052248113,0.055592023,0.033785865,0.085349873,0.084560215,XArbitraryZVertical,0.090349981,-0.080068834,0.114005775,0.986117874,-0.178515449,-0.159934849,-0.970851719,0,0,0,-1,-1,332829.6131,walking,2,2023-02-21T13:09:17.012-08:00,2023-02-14T17:43:35.488-08:00,36557,1.291021,1.296136,1.768325,27144.85,72,85,2023-02-21T13:09:34.948-08:00,698706575,0,5.850002,99.21422,1,0.55,0
2023-02-21T13:09:35.736-08:00,1677013775,34.06360711,-118.451012,138.2697,0.79,0.96,149.7656274,54.74394229,8.50087713,15.4004227,-9999,332848.3349,-0.191513062,-0.112930298,-0.869354248,332848.3299,0.242278135,-0.175524121,0.138695975,-0.274978608,0.168100014,-0.033684798,-0.019404933,0.042029828,0.08821696,XArbitraryZVertical,0.079086257,-0.07845671,0.114059655,0.987208313,-0.172947332,-0.138251737,-0.975179791,0,0,0,-1,-1,332829.6131,walking,2,2023-02-21T13:09:17.012-08:00,2023-02-14T17:43:35.488-08:00,36557,1.291021,1.296136,1.768325,27144.85,72,85,2023-02-21T13:09:34.948-08:00,698706575,0,5.850002,99.21422,1,0.55,0
2023-02-21T13:09:35.771-08:00,1677013775,34.06360711,-118.451012,138.2697,0.79,0.96,149.7656274,54.74394229,8.50087713,15.4004227,-9999,332848.37,-0.172653198,-0.130813599,-0.892959595,332848.36,0.23819668,-0.169677684,0.132533826,-0.159635663,0.171033487,-0.157101408,-0.008855224,0.025334641,0.101430833,XArbitraryZVertical,0.07555898,-0.076112603,0.112558388,0.987840175,-0.16738376,-0.132146165,-0.976995409,0,0,0,-1,-1,332829.6131,walking,2,2023-02-21T13:09:17.012-08:00,2023-02-14T17:43:35.488-08:00,36557,1.291021,1.296136,1.768325,27144.85,72,85,2023-02-21T13:09:34.948-08:00,698706575,0,5.850002,99.21422,1,0.55,0
2023-02-21T13:09:35.806-08:00,1677013775,34.06360711,-118.451012,138.2697,0.79,0.96,149.7656274,54.74394229,8.50087713,15.4004227,-9999,332848.405,-0.19078064,-0.118881226,-0.892547607,332848.39,0.233540772,-0.164499277,0.130777097,0.013441205,0.141679317,-0.083530121,0.006125316,-0.002972424,0.093448341,XArbitraryZVertical,0.074228853,-0.073836129,0.110531468,0.988342599,-0.162360027,-0.130404636,-0.978076577,0,0,0,-1,-1,332829.6131,walking,2,2023-02-21T13:09:17.012-08:00,2023-02-14T17:43:35.488-08:00,36557,1.291021,1.296136,1.768325,27144.85,72,85,2023-02-21T13:09:34.948-08:00,698706575,0,5.850002,99.21422,1,0.55,0
2023-02-21T13:09:35.841-08:00,1677013775,34.06360711,-118.451012,138.2697,0.79,0.96,149.7656274,54.74394229,8.50087713,15.4004227,-9999,332848.44,-0.187271118,-0.144287109,-0.903564453,332848.42,0.232902893,-0.159397101,0.134049809,0.178278208,0.189483464,-0.025082719,-0.027225479,0.019604504,0.079127908,XArbitraryZVertical,0.075539456,-0.071140459,0.110263542,0.988470866,-0.157299042,-0.133648708,-0.978465676,0,0,0,-1,-1,332829.6131,walking,2,2023-02-21T13:09:17.012-08:00,2023-02-14T17:43:35.488-08:00,36557,1.291021,1.296136,1.768325,27144.85,72,85,2023-02-21T13:09:34.948-08:00,698706575,0,5.850002,99.21422,1,0.55,0
2023-02-21T13:09:35.876-08:00,1677013775,34.06360711,-118.451012,138.2697,0.79,0.96,149.7656274,54.74394229,8.50087713,15.4004227,-9999,332848.4751,-0.173904419,-0.193588257,-0.932022095,332848.45,0.233144964,-0.154434239,0.140039387,0.237150088,0.118301421,-0.019962925,-0.034955844,-0.004704997,0.074861288,XArbitraryZVertical,0.078230722,-0.068316131,0.110317614,0.98845477,-0.152315259,-0.139582112,-0.978425741,0,0,0,-1,-1,332829.6131,walking,2,2023-02-21T13:09:17.012-08:00,2023-02-14T17:43:35.488-08:00,36557,1.291021,1.296136,1.768325,27144.85,72,85,2023-02-21T13:09:34.948-08:00,698706575,0,5.850002,99.21422,1,0.55,0
2023-02-21T13:09:35.911-08:00,1677013775,34.06360711,-118.451012,138.2697,0.79,0.96,149.7656274,54.74394229,8.50087713,15.4004227,-9999,332848.5101,-0.182067871,-0.203079224,-0.930419922,332848.4801,0.233198601,-0.152946123,0.148313707,0.281104535,-0.004818237,-0.056561351,-0.022875488,-0.038676575,0.04701066,XArbitraryZVertical,0.082234197,-0.067077293,0.110054625,0.988243957,-0.150677964,-0.147770569,-0.977476358,0,0,0,-1,-1,332829.6131,walking,2,2023-02-21T13:09:17.012-08:00,2023-02-14T17:43:35.488-08:00,36557,1.291021,1.296136,1.768325,27144.85,72,85,2023-02-21T13:09:34.948-08:00,698706575,0,5.850002,99.21422,1,0.55,0
2023-02-21T13:09:35.946-08:00,1677013775,34.06360711,-118.451012,138.2697,0.79,0.96,149.7656274,54.74394229,8.50087713,15.4004227,-9999,332848.5451,-0.223083496,-0.197845459,-0.980270386,332848.5401,0.227843432,-0.159278787,0.155213099,0.039031945,-0.142958343,-0.157340512,-0.047005311,-0.036769822,0.013436615,XArbitraryZVertical,0.085798244,-0.070016479,0.106846262,0.988089215,-0.156699494,-0.154590636,-0.975472689,0,0,0,-1,-1,332829.6131,walking,2,2023-02-21T13:09:17.012-08:00,2023-02-14T17:43:35.488-08:00,36557,1.291021,1.296136,1.768325,27144.85,72,85,2023-02-21T13:09:34.948-08:00,698706575,0,5.850002,99.21422,1,0.55,0
2023-02-21T13:09:35.981-08:00,1677013775,34.06360711,-118.451012,138.2697,0.79,0.96,149.7656274,54.74394229,8.50087713,15.4004227,-9999,332848.5802,-0.219863892,-0.177108765,-1.015869141,332848.5702,0.227080187,-0.164039355,0.161053684,0.155103147,-0.098170623,0.01884516,-0.061144486,-0.035305113,-0.026634216,XArbitraryZVertical,0.088905273,-0.07205356,0.106001711,0.987758876,-0.161191314,-0.16035834,-0.973808289,0,0,0,-1,-1,332829.6131,walking,2,2023-02-21T13:09:17.012-08:00,2023-02-14T17:43:35.488-08:00,36557,1.291021,1.296136,1.768325,27144.85,72,85,2023-02-21T13:09:34.948-08:00,698706575,0,5.850002,99.21422,1,0.55,0
2023-02-21T13:09:36.016-08:00,1677013775,34.06360711,-118.451012,138.2697,0.79,0.96,149.7656274,54.74394229,8.50087713,15.4004227,-9999,332848.6152,-0.171569824,-0.144470215,-1.033126831,332848.6002,0.229133924,-0.166931717,0.170390266,0.299712837,-0.004991476,0.017451424,-0.053426996,0.011684299,-0.052777946,XArbitraryZVertical,0.09373588,-0.072828489,0.106457829,0.9872063,-0.163751319,-0.169566974,-0.971819222,0,0,0,-1,-1,332829.6131,walking,2,2023-02-21T13:09:17.012-08:00,2023-02-14T17:43:35.488-08:00,36557,1.291021,1.296136,1.768325,27144.85,72,85,2023-02-21T13:09:34.948-08:00,698706575,0,5.850002,99.21422,1,0.55,0
2023-02-21T13:09:36.051-08:00,1677013775,34.06360711,-118.451012,138.2697,0.79,0.96,149.7656274,54.74394229,8.50087713,15.4004227,-9999,332848.6502,-0.161422729,-0.160736084,-1.069580078,332848.6302,0.230707176,-0.169174898,0.183050086,0.445980042,-0.004771633,-0.060172994,0.003019556,0.037422016,-0.064481556,XArbitraryZVertical,0.100148828,-0.073091831,0.106535864,0.986548473,-0.165556148,-0.182029545,-0.969255567,0,0,0,-1,-1,332829.6131,walking,2,2023-02-21T13:09:17.012-08:00,2023-02-14T17:43:35.488-08:00,36557,1.291021,1.296136,1.768325,27144.85,72,85,2023-02-21T13:09:34.948-08:00,698706575,0,5.850002,99.21422,1,0.55,0
2023-02-21T13:09:36.086-08:00,1677013775,34.06360711,-118.451012,138.2697,0.79,0.96,149.7656274,54.74394229,8.50087713,15.4004227,-9999,332848.6853,-0.153579712,-0.246307373,-1.114334106,332848.6602,0.229941151,-0.170474819,0.194855653,0.216945753,0.013659772,-0.140068978,0.005017057,0.032888845,-0.102725804,XArbitraryZVertical,0.106000833,-0.073052637,0.105532271,0.986047644,-0.166439772,-0.193624929,-0.966854274,0,0,0,-1,-1,332829.6131,walking,2,2023-02-21T13:09:17.012-08:00,2023-02-14T17:43:35.488-08:00,36557,1.291021,1.296136,1.768325,27144.85,72,85,2023-02-21T13:09:34.948-08:00,698706575,0,5.850002,99.21422,1,0.55,0
2023-02-21T13:09:36.121-08:00,1677013776,34.06360275,-118.4510092,137.7553,0.23,1.118034,-1,-1,8.508433289,15.38865946,-9999,332848.7203,-0.120285034,-0.140716553,-1.113815308,332848.6903,0.226372418,-0.168804241,0.196886804,-0.066945143,0.070695356,-0.071550921,0.013589144,-0.044418767,-0.143182993,XArbitraryZVertical,0.106783311,-0.072295781,0.103765191,0.986206566,-0.164757922,-0.195617229,-0.966741264,0,0,0,-1,-1,332829.6131,walking,2,2023-02-21T13:09:17.012-08:00,2023-02-14T17:43:35.488-08:00,36557,1.291021,1.296136,1.768325,27144.85,72,85,2023-02-21T13:09:34.948-08:00,698706575,0,5.850002,99.21422,1,0.55,0
2023-02-21T13:09:36.156-08:00,1677013776,34.06360275,-118.4510092,137.7553,0.23,1.118034,-1,-1,8.508433289,15.38865946,-9999,332848.7553,-0.105133057,-0.206939697,-1.065689087,332848.7503,0.229869901,-0.166160472,0.20027413,0.126112834,0.01314172,0.123041108,0.087261915,-0.033605963,-0.12461102,XArbitraryZVertical,0.108436874,-0.070599016,0.105472768,0.985967816,-0.162090987,-0.198937982,-0.966514468,0,0,0,-1,-1,332829.6131,walking,2,2023-02-21T13:09:17.012-08:00,2023-02-14T17:43:35.488-08:00,36557,1.291021,1.296136,1.768325,27144.85,72,85,2023-02-21T13:09:34.948-08:00,698706575,0,5.850002,99.21422,1,0.55,0
2023-02-21T13:09:36.191-08:00,1677013776,34.06360275,-118.4510092,137.7553,0.23,1.118034,-1,-1,8.508433289,15.38865946,-9999,332848.7903,-0.084014893,-0.187316895,-0.968414307,332848.7803,0.234571485,-0.165887095,0.20188351,-0.076529428,0.031703353,0.185226604,0.026351944,-0.019394726,-0.05458653,XArbitraryZVertical,0.109379412,-0.070109161,0.10772983,0.985654584,-0.161773682,-0.200514942,-0.966241717,0,0,0,-1,-1,332829.6131,walking,2,2023-02-21T13:09:17.012-08:00,2023-02-14T17:43:35.488-08:00,36557,1.291021,1.296136,1.768325,27144.85,72,85,2023-02-21T13:09:34.948-08:00,698706575,0,5.850002,99.21422,1,0.55,0
2023-02-21T13:09:36.226-08:00,1677013776,34.06360275,-118.4510092,137.7553,0.23,1.118034,-1,-1,8.508433289,15.38865946,-9999,332848.8254,-0.071136475,-0.154769897,-0.996658325,332848.8104,0.240922123,-0.166988102,0.195242464,-0.168106005,0.00390994,0.227965608,0.071822882,0.049229011,-0.009222984,XArbitraryZVertical,0.106396987,-0.070726825,0.111111668,0.985561507,-0.163055167,-0.194004402,-0.967354774,0,0,0,-1,-1,332829.6131,walking,2,2023-02-21T13:09:17.012-08:00,2023-02-14T17:43:35.488-08:00,36557,1.291021,1.296136,1.768325,27144.85,72,85,2023-02-21T13:09:34.948-08:00,698706575,0,5.850002,99.21422,1,0.55,0
2023-02-21T13:09:36.261-08:00,1677013776,34.06360275,-118.4510092,137.7553,0.23,1.118034,-1,-1,8.508433289,15.38865946,-9999,332848.8604,-0.057907104,-0.15272522,-0.926467896,332848.8404,0.244995708,-0.166986774,0.1898316,-0.138611883,0.004525529,0.137442052,0.104021892,0.037066936,-0.025978267,XArbitraryZVertical,0.103879974,-0.070858741,0.113373446,0.98556302,-0.163225964,-0.188693523,-0.968375981,0,0,0,-1,-1,332829.6131,walking,2,2023-02-21T13:09:17.012-08:00,2023-02-14T17:43:35.488-08:00,36557,1.291021,1.296136,1.768325,27144.85,72,85,2023-02-21T13:09:34.948-08:00,698706575,0,5.850002,99.21422,1,0.55,0
2023-02-21T13:09:36.296-08:00,1677013776,34.06360275,-118.4510092,137.7553,0.23,1.118034,-1,-1,8.508433289,15.38865946,-9999,332848.8954,-0.117462158,-0.144546509,-0.893661499,332848.8704,0.248638211,-0.166002365,0.187027711,-0.065702878,0.048047304,0.162035733,0.104452312,0.033214048,0.042586267,XArbitraryZVertical,0.102573329,-0.070367753,0.115350518,0.985505587,-0.162359402,-0.185939267,-0.969054163,0,0,0,-1,-1,332829.6131,walking,2,2023-02-21T13:09:17.012-08:00,2023-02-14T17:43:35.488-08:00,36557,1.291021,1.296136,1.768325,27144.85,72,85,2023-02-21T13:09:34.948-08:00,698706575,0,5.850002,99.21422,1,0.55,0
2023-02-21T13:09:36.331-08:00,1677013776,34.06360275,-118.4510092,137.7553,0.23,1.118034,-1,-1,8.508433289,15.38865946,-9999,332848.9305,-0.141998291,-0.170928955,-0.879226685,332848.9004,0.253324267,-0.163224395,0.183031684,-0.055967536,0.093921125,0.172444671,0.057781249,0.036824077,0.077496171,XArbitraryZVertical,0.100609333,-0.069024095,0.117985979,0.985491084,-0.159786239,-0.182011455,-0.970226884,0,0,0,-1,-1,332829.6131,walking,2,2023-02-21T13:09:17.012-08:00,2023-02-14T17:43:35.488-08:00,36557,1.291021,1.296136,1.768325,27144.85,72,85,2023-02-21T13:09:34.948-08:00,698706575,0,5.850002,99.21422,1,0.55,0
2023-02-21T13:09:36.366-08:00,1677013776,34.06360275,-118.4510092,137.7553,0.23,1.118034,-1,-1,8.508433289,15.38865946,-9999,332848.9655,-0.126098633,-0.170272827,-0.832290649,332848.9605,0.260893099,-0.153973982,0.183093335,0.147515163,0.065624639,0.086925045,0.018310755,0.017521292,0.121859848,XArbitraryZVertical,0.10033611,-0.064081936,0.122177166,0.985342012,-0.150802806,-0.182072073,-0.971652329,0,0,0,-1,-1,332829.6131,walking,2,2023-02-21T13:09:17.012-08:00,2023-02-14T17:43:35.488-08:00,36557,1.291021,1.296136,1.768325,27144.85,72,85,2023-02-21T13:09:34.948-08:00,698706575,0,5.850002,99.21422,1,0.55,0
2023-02-21T13:09:36.401-08:00,1677013776,34.06360275,-118.4510092,137.7553,0.23,1.118034,-1,-1,8.508433289,15.38865946,-9999,332849.0005,-0.141921997,-0.197296143,-0.823394775,332848.9905,0.263171467,-0.152411376,0.185358511,0.014646977,0.025565103,0.045766555,0.024846956,-0.000561327,0.144496083,XArbitraryZVertical,0.101426437,-0.063042428,0.12327924,0.985160119,-0.149221316,-0.184298918,-0.971476674,0,0,0,-1,-1,332829.6131,walking,2,2023-02-21T13:09:17.012-08:00,2023-02-14T17:43:35.488-08:00,36557,1.291021,1.296136,1.768325,27144.85,72,85,2023-02-21T13:09:34.948-08:00,698706575,0,5.850002,99.21422,1,0.55,0
2023-02-21T13:09:36.436-08:00,1677013776,34.06360275,-118.4510092,137.7553,0.23,1.118034,-1,-1,8.508433289,15.38865946,-9999,332849.0356,-0.172866821,-0.234695435,-0.837173462,332849.0206,0.263183573,-0.152335841,0.183637139,-0.081008442,-0.019900518,-0.026764836,-0.004734784,-0.023936212,0.148084879,XArbitraryZVertical,0.100575798,-0.063122714,0.123364056,0.985231584,-0.149195865,-0.182606757,-0.971800089,0,0,0,-1,-1,332829.6131,walking,2,2023-02-21T13:09:17.012-08:00,2023-02-14T17:43:35.488-08:00,36557,1.291021,1.296136,1.768325,27144.85,72,85,2023-02-21T13:09:34.948-08:00,698706575,0,5.850002,99.21422,1,0.55,0
2023-02-21T13:09:36.471-08:00,1677013776,34.06360275,-118.4510092,137.7553,0.23,1.118034,-1,-1,8.508433289,15.38865946,-9999,332849.0706,-0.162002563,-0.260940552,-0.876876831,332849.0506,0.261895555,-0.153158983,0.182421945,-0.009708323,-0.045666337,-0.036866605,-0.021403,-0.056976199,0.134157479,XArbitraryZVertical,0.099988068,-0.063675977,0.122741268,0.985333578,-0.15002948,-0.181411862,-0.971895516,0,0,0,-1,-1,332829.6131,walking,2,2023-02-21T13:09:17.012-08:00,2023-02-14T17:43:35.488-08:00,36557,1.291021,1.296136,1.768325,27144.85,72,85,2023-02-21T13:09:34.948-08:00,698706575,0,5.850002,99.21422,1,0.55,0
2023-02-21T13:09:36.507-08:00,1677013776,34.06360275,-118.4510092,137.7553,0.23,1.118034,-1,-1,8.508433289,15.38865946,-9999,332849.1056,-0.16015625,-0.29397583,-0.892181396,332849.0806,0.261455619,-0.154759096,0.182958521,0.065910697,-0.057699628,-0.016034927,-0.010433123,-0.079001039,0.094681084,XArbitraryZVertical,0.100335903,-0.064449695,0.122420841,0.985287785,-0.151569411,-0.181939512,-0.971557915,0,0,0,-1,-1,332829.6131,walking,2,2023-02-21T13:09:17.012-08:00,2023-02-14T17:43:35.488-08:00,36557,1.291021,1.296136,1.768325,27144.85,72,85,2023-02-21T13:09:34.948-08:00,698706575,0,5.850002,99.21422,1,0.55,0
2023-02-21T13:09:36.541-08:00,1677013776,34.06360275,-118.4510092,137.7553,0.23,1.118034,-1,-1,8.508433289,15.38865946,-9999,332849.1407,-0.167007446,-0.280136108,-0.92250061,332849.1106,0.261204238,-0.156560323,0.184408408,-0.010856519,-0.049222253,-0.011839118,0.001925945,-0.112899646,0.06667906,XArbitraryZVertical,0.101150767,-0.065250774,0.122141982,0.985186414,-0.153277859,-0.183365002,-0.971021712,0,0,0,-1,-1,332829.6131,walking,2,2023-02-21T13:09:17.012-08:00,2023-02-14T17:43:35.488-08:00,36557,1.291021,1.296136,1.768325,27144.85,72,85,2023-02-21T13:09:34.948-08:00,698706575,0,5.850002,99.21422,1,0.55,0
2023-02-21T13:09:36.577-08:00,1677013776,34.06360275,-118.4510092,137.7553,0.23,1.118034,-1,-1,8.508433289,15.38865946,-9999,332849.1757,-0.165588379,-0.224716187,-0.996932983,332849.1707,0.263197271,-0.159774325,0.186724449,0.163585007,0.008170132,0.042751323,-0.048198849,-0.033978477,-0.014715314,XArbitraryZVertical,0.102551775,-0.066573553,0.122855615,0.984864244,-0.156329945,-0.185641289,-0.970102191,0,0,0,-1,-1,332829.6131,walking,2,2023-02-21T13:09:17.012-08:00,2023-02-14T17:43:35.488-08:00,36557,1.291021,1.296136,1.768325,27144.85,72,85,2023-02-21T13:09:34.948-08:00,698706575,0,5.850002,99.21422,1,0.55,0
2023-02-21T13:09:36.611-08:00,1677013776,34.06360275,-118.4510092,137.7553,0.23,1.118034,-1,-1,8.508433289,15.38865946,-9999,332849.2107,-0.180023193,-0.217025757,-0.995452881,332849.2007,0.26448627,-0.160998606,0.192943094,0.042980082,-0.040556595,-0.020445123,0.016887531,-0.033166334,-0.025617659,XArbitraryZVertical,0.105725474,-0.066679948,0.123142049,0.984485605,-0.157329395,-0.191748202,-0.968751788,0,0,0,-1,-1,332829.6131,walking,2,2023-02-21T13:09:17.012-08:00,2023-02-14T17:43:35.488-08:00,36557,1.291021,1.296136,1.768325,27144.85,72,85,2023-02-21T13:09:34.948-08:00,698706575,0,5.850002,99.21422,1,0.55,0
2023-02-21T13:09:36.646-08:00,1677013776,34.06360275,-118.4510092,137.7553,0.23,1.118034,-1,-1,8.508433289,15.38865946,-9999,332849.2458,-0.201049805,-0.235244751,-1.062576294,332849.2307,0.262596502,-0.161816258,0.19501098,-0.101213209,0.052519955,-0.103738084,-0.046090081,-0.031335607,-0.040498555,XArbitraryZVertical,0.106728205,-0.067040031,0.122073041,0.984486097,-0.158057228,-0.193777308,-0.968229473,0,0,0,-1,-1,332829.6131,walking,2,2023-02-21T13:09:17.012-08:00,2023-02-14T17:43:35.488-08:00,36557,1.291021,1.296136,1.768325,27144.85,72,85,2023-02-21T13:09:34.948-08:00,698706575,0,5.850002,99.21422,1,0.55,0
2023-02-21T13:09:36.681-08:00,1677013776,34.06360275,-118.4510092,137.7553,0.23,1.118034,-1,-1,8.508433289,15.38865946,-9999,332849.2808,-0.230712891,-0.170761108,-1.153900146,332849.2608,0.259431117,-0.160122672,0.192684989,-0.106306769,0.040260289,-0.114792429,-0.039083198,-0.046862662,-0.103174925,XArbitraryZVertical,0.105376911,-0.066533199,0.120711306,0.984833863,-0.156488657,-0.191494882,-0.968938053,0,0,0,-1,-1,332829.6131,walking,2,2023-02-21T13:09:17.012-08:00,2023-02-14T17:43:35.488-08:00,36557,1.291021,1.296136,1.768325,27144.85,72,85,2023-02-21T13:09:34.948-08:00,698706575,0,5.850002,99.21422,1,0.55,0
2023-02-21T13:09:36.717-08:00,1677013776,34.06360275,-118.4510092,137.7553,0.23,1.118034,-1,-1,8.508433289,15.38865946,-9999,332849.3158,-0.173522949,-0.15171814,-1.178283691,332849.2908,0.253460565,-0.155351914,0.194990228,0.127887726,0.155350998,-0.171830848,-0.07891725,0.022995844,-0.184665203,XArbitraryZVertical,0.106030076,-0.064344096,0.11791896,0.985247457,-0.151795626,-0.193756953,-0.969234943,0,0,0,-1,-1,332829.6131,walking,2,2023-02-21T13:09:17.012-08:00,2023-02-14T17:43:35.488-08:00,36557,1.291021,1.296136,1.768325,27144.85,72,85,2023-02-21T13:09:34.948-08:00,698706575,0,5.850002,99.21422,1,0.55,0
2023-02-21T13:09:36.752-08:00,1677013776,34.06360275,-118.4510092,137.7553,0.23,1.118034,-1,-1,8.508433289,15.38865946,-9999,332849.3508,-0.11819458,-0.203781128,-1.056015015,332849.3208,0.252296699,-0.150709465,0.197539586,-0.010678672,0.160624847,0.096508458,-0.031384364,0.039198652,-0.207457483,XArbitraryZVertical,0.106973655,-0.061950001,0.117480898,0.985351235,-0.147219747,-0.196257368,-0.969437659,0,0,0,-1,-1,332829.6131,walking,2,2023-02-21T13:09:17.012-08:00,2023-02-14T17:43:35.488-08:00,36557,1.291021,1.296136,1.768325,27144.85,72,85,2023-02-21T13:09:34.948-08:00,698706575,0,5.850002,99.21422,1,0.55,0
2023-02-21T13:09:36.787-08:00,1677013776,34.06360275,-118.4510092,137.7553,0.23,1.118034,-1,-1,8.508433289,15.38865946,-9999,332849.3859,-0.248046875,-0.040359497,-1.041137695,332849.3809,0.244786868,-0.144123201,0.18910382,0.110831141,0.106531784,-0.14087826,-0.054782152,0.125921264,-0.057779789,XArbitraryZVertical,0.102212627,-0.059644896,0.11448064,0.98635142,-0.141064391,-0.187978774,-0.971990108,0,0,0,-1,-1,332829.6131,walking,2,2023-02-21T13:09:17.012-08:00,2023-02-14T17:43:35.488-08:00,36557,1.291021,1.296136,1.768325,27144.85,72,85,2023-02-21T13:09:34.948-08:00,698706575,0,5.850002,99.21422,1,0.55,0
2023-02-21T13:09:36.822-08:00,1677013776,34.06360275,-118.4510092,137.7553,0.23,1.118034,-1,-1,8.508433289,15.38865946,-9999,332849.4209,-0.122253418,-0.099075317,-0.983963013,332849.4109,0.241266295,-0.141446791,0.188105345,-0.3120749,-0.017643489,-0.073390126,0.026657179,0.103547692,-0.051010013,XArbitraryZVertical,0.101464738,-0.058567427,0.112921254,0.986672886,-0.138488829,-0.186997995,-0.972549498,0,0,0,-1,-1,332829.6131,walking,2,2023-02-21T13:09:17.012-08:00,2023-02-14T17:43:35.488-08:00,36557,1.291021,1.296136,1.768325,27144.85,72,85,2023-02-21T13:09:34.948-08:00,698706575,0,5.850002,99.21422,1,0.55,0
2023-02-21T13:09:36.857-08:00,1677013776,34.06360275,-118.4510092,137.7553,0.23,1.118034,-1,-1,8.508433289,15.38865946,-9999,332849.4559,-0.116241455,-0.132400513,-0.924377441,332849.4409,0.237600412,-0.141506236,0.176257405,-0.440933764,-0.010611879,-0.041032489,0.008203655,0.077125371,0.005260229,XArbitraryZVertical,0.095521868,-0.059517919,0.111587358,0.987360789,-0.138849378,-0.175346196,-0.974666357,0,0,0,-1,-1,332829.6131,walking,2,2023-02-21T13:09:17.012-08:00,2023-02-14T17:43:35.488-08:00,36557,1.291021,1.296136,1.768325,27144.85,72,85,2023-02-21T13:09:34.948-08:00,698706575,0,5.850002,99.21422,1,0.55,0
2023-02-21T13:09:36.892-08:00,1677013776,34.06360275,-118.4510092,137.7553,0.23,1.118034,-1,-1,8.508433289,15.38865946,-9999,332849.491,-0.136611938,-0.078720093,-0.949432373,332849.471,0.23441106,-0.142404882,0.159181381,-0.626073122,-0.088967666,-0.014146015,0.024315596,0.029786855,0.047766984,XArbitraryZVertical,0.087054005,-0.061156796,0.11065435,0.988148222,-0.140129775,-0.158509985,-0.977362871,0,0,0,-1,-1,332829.6131,walking,2,2023-02-21T13:09:17.012-08:00,2023-02-14T17:43:35.488-08:00,36557,1.291021,1.296136,1.768325,27144.85,72,85,2023-02-21T13:09:34.948-08:00,698706575,0,5.850002,99.21422,1,0.55,0
2023-02-21T13:09:36.927-08:00,1677013776,34.06360275,-118.4510092,137.7553,0.23,1.118034,-1,-1,8.508433289,15.38865946,-9999,332849.526,-0.141921997,-0.115844727,-0.896438599,332849.501,0.230911215,-0.144419272,0.143828841,-0.422182769,-0.105095245,-0.084114708,0.005819827,0.064613372,0.029939234,XArbitraryZVertical,0.079477877,-0.063225557,0.109452668,0.988790096,-0.142431736,-0.143333465,-0.979371607,0,0,0,-1,-1,332829.6131,walking,2,2023-02-21T13:09:17.012-08:00,2023-02-14T17:43:35.488-08:00,36557,1.291021,1.296136,1.768325,27144.85,72,85,2023-02-21T13:09:34.948-08:00,698706575,0,5.850002,99.21422,1,0.55,0
2023-02-21T13:09:36.962-08:00,1677013776,34.06360275,-118.4510092,137.7553,0.23,1.118034,-1,-1,8.508433289,15.38865946,-9999,332849.561,-0.124771118,-0.181243896,-0.841781616,332849.531,0.225866483,-0.146625177,0.132234847,-0.441639632,-0.107920185,-0.123442478,0.005908862,0.03256087,0.078518271,XArbitraryZVertical,0.073708458,-0.065195753,0.10733652,0.989340839,-0.144824862,-0.13184981,-0.98063314,0,0,0,-1,-1,332829.6131,walking,2,2023-02-21T13:09:17.012-08:00,2023-02-14T17:43:35.488-08:00,36557,1.291021,1.296136,1.768325,27144.85,72,85,2023-02-21T13:09:34.948-08:00,698706575,0,5.850002,99.21422,1,0.55,0
2023-02-21T13:09:36.997-08:00,1677013776,34.06360275,-118.4510092,137.7553,0.23,1.118034,-1,-1,8.508433289,15.38865946,-9999,332849.5961,-0.124771118,-0.131973267,-0.871734619,332849.5911,0.216219307,-0.153446119,0.103291088,-0.276011318,-0.151690647,-0.050912049,0.036337927,-0.004436426,0.150417805,XArbitraryZVertical,0.059429445,-0.070545081,0.103504674,0.990342474,-0.152030036,-0.103107519,-0.982983053,0,0,0,-1,-1,332829.6131,walking,2,2023-02-21T13:09:17.012-08:00,2023-02-14T17:43:35.488-08:00,36557,1.291021,1.296136,1.768325,27144.85,72,85,2023-02-21T13:09:34.948-08:00,698706575,0,5.850002,99.21422,1,0.55,0
2023-02-21T13:09:37.032-08:00,1677013776,34.06360275,-118.4510092,137.7553,0.23,1.118034,-1,-1,8.508433289,15.38865946,-9999,332849.6311,-0.147094727,-0.126663208,-0.878646851,332849.6211,0.213616433,-0.159404171,0.095368897,-0.286239594,-0.257004291,-0.032208007,0.091449842,-0.001546845,0.08807534,XArbitraryZVertical,0.055722311,-0.074008679,0.102372575,0.990422971,-0.158008665,-0.095224395,-0.982835472,0,0,0,-1,-1,332829.6131,walking,2,2023-02-21T13:09:17.012-08:00,2023-02-14T17:43:35.488-08:00,36557,1.291021,1.296136,1.768325,27144.85,72,85,2023-02-21T13:09:34.948-08:00,698706575,0,5.850002,99.21422,1,0.55,0
2023-02-21T13:09:37.067-08:00,1677013776,34.06360275,-118.4510092,137.7553,0.23,1.118034,-1,-1,8.508433289,15.38865946,-9999,332849.6661,-0.197982788,-0.08291626,-0.921600342,332849.6511,0.210710977,-0.167869479,0.081330913,-0.640016496,-0.308731198,-0.00718105,0.001994357,-0.028652526,0.109926939,XArbitraryZVertical,0.049095494,-0.07904227,0.101314452,0.990493416,-0.166529864,-0.08124128,-0.982683897,0,0,0,-1,-1,332829.6131,walking,2,2023-02-21T13:09:17.012-08:00,2023-02-14T17:43:35.488-08:00,36557,1.291021,1.296136,1.768325,27144.85,72,85,2023-02-21T13:09:34.948-08:00,698706575,0,5.850002,99.21422,1,0.55,0
2023-02-21T13:09:37.103-08:00,1677013777,34.06359307,-118.4509998,135.9377,0.44,1.02,136.7578143,80.4689448,8.493502632,15.41188528,-9999,332849.7012,-0.217849731,-0.035186768,-0.97833252,332849.6811,0.207012253,-0.176855452,0.058518638,-0.906238735,-0.309906721,0.026528578,-0.028864473,-0.028199948,0.042119205,XArbitraryZVertical,0.038105547,-0.084791412,0.100303891,0.99060462,-0.175633803,-0.058485243,-0.982716739,0,0,0,-1,-1,332829.6131,walking,2,2023-02-21T13:09:17.012-08:00,2023-02-14T17:43:35.488-08:00,36557,1.291021,1.296136,1.768325,27144.85,72,85,2023-02-21T13:09:34.948-08:00,698706575,0,5.850002,99.21422,1,0.55,0
2023-02-21T13:09:37.137-08:00,1677013777,34.06359307,-118.4509998,135.9377,0.44,1.02,136.7578143,80.4689448,8.493502632,15.41188528,-9999,332849.7362,-0.247741699,0.070648193,-1.070648193,332849.7112,0.203726767,-0.187058957,0.031241194,-0.792085588,-0.361774772,0.080900639,-0.031970486,-0.003950668,0.00374347,XArbitraryZVertical,0.024966824,-0.091316326,0.099779292,0.990495798,-0.185879216,-0.031236112,-0.982075989,0,0,0,-1,-1,332829.6131,walking,2,2023-02-21T13:09:17.012-08:00,2023-02-14T17:43:35.488-08:00,36557,1.291021,1.296136,1.768325,27144.85,72,85,2023-02-21T13:09:34.948-08:00,698706575,0,5.850002,99.21422,1,0.55,0
2023-02-21T13:09:37.172-08:00,1677013777,34.06359307,-118.4509998,135.9377,0.44,1.02,136.7578143,80.4689448,8.493502632,15.41188528,-9999,332849.7712,-0.225830078,0.057800293,-1.093292236,332849.7412,0.203147439,-0.197385091,0.01508117,-0.293600708,-0.309812367,0.060221396,-0.052390531,0.079701558,-0.076627135,XArbitraryZVertical,0.017455964,-0.097260891,0.100163705,0.990051905,-0.196083575,-0.015080599,-0.980471194,0,0,0,-1,-1,332829.6131,walking,2,2023-02-21T13:09:17.012-08:00,2023-02-14T17:43:35.488-08:00,36557,1.291021,1.296136,1.768325,27144.85,72,85,2023-02-21T13:09:34.948-08:00,698706575,0,5.850002,99.21422,1,0.55,0
2023-02-21T13:09:37.207-08:00,1677013777,34.06359307,-118.4509998,135.9377,0.44,1.02,136.7578143,80.4689448,8.493502632,15.41188528,-9999,332849.8063,-0.213699341,0.039978027,-1.086776733,332849.8012,0.196286922,-0.211031299,0.000835284,-0.25202921,-0.092427045,-0.117404394,-0.036030278,0.068630069,-0.11793381,XArbitraryZVertical,0.0107332,-0.10477244,0.09739724,0.989657153,-0.209468365,-0.000835284,-0.977815092,0,0,0,-1,-1,332829.6131,walking,2,2023-02-21T13:09:17.012-08:00,2023-02-14T17:43:35.488-08:00,36557,1.291021,1.296136,1.768325,27144.85,72,85,2023-02-21T13:09:34.948-08:00,698706575,0,5.850002,99.21422,1,0.55,0
2023-02-21T13:09:37.242-08:00,1677013777,34.06359307,-118.4509998,135.9377,0.44,1.02,136.7578143,80.4689448,8.493502632,15.41188528,-9999,332849.8413,-0.203231812,0.080596924,-1.118026733,332849.8313,0.191008226,-0.211824917,-0.010813338,-0.530135691,0.03703434,-0.072903402,0.00841938,-0.006311799,-0.099999189,XArbitraryZVertical,0.004728843,-0.105743966,0.095392233,0.989795928,-0.210232079,0.010813127,-0.977591693,0,0,0,-1,-1,332829.6131,walking,2,2023-02-21T13:09:17.012-08:00,2023-02-14T17:43:35.488-08:00,36557,1.291021,1.296136,1.768325,27144.85,72,85,2023-02-21T13:09:34.948-08:00,698706575,0,5.850002,99.21422,1,0.55,0
2023-02-21T13:09:37.277-08:00,1677013777,34.06359307,-118.4509998,135.9377,0.44,1.02,136.7578143,80.4689448,8.493502632,15.41188528,-9999,332849.8763,-0.161483765,0.068069458,-1.103012085,332849.8613,0.187613454,-0.208832301,-0.018002358,0.16712445,0.172543228,-0.037397772,0.015206516,0.118366398,-0.152545869,XArbitraryZVertical,0.000849746,-0.104602603,0.094089302,0.990052874,-0.207284123,0.018001385,-0.978115141,0,0,0,-1,-1,332829.6131,walking,2,2023-02-21T13:09:17.012-08:00,2023-02-14T17:43:35.488-08:00,36557,1.291021,1.296136,1.768325,27144.85,72,85,2023-02-21T13:09:34.948-08:00,698706575,0,5.850002,99.21422,1,0.55,0
2023-02-21T13:09:37.312-08:00,1677013777,34.06359307,-118.4509998,135.9377,0.44,1.02,136.7578143,80.4689448,8.493502632,15.41188528,-9999,332849.9113,-0.07723999,-0.068756104,-1.068832397,332849.8913,0.190733572,-0.202665615,-0.006383283,0.48593244,0.194203913,0.081392325,0.051359415,0.033518478,-0.107812464,XArbitraryZVertical,0.006471753,-0.101001654,0.095054739,0.990313786,-0.201277003,0.00638324,-0.979513586,0,0,0,-1,-1,332829.6131,walking,2,2023-02-21T13:09:17.012-08:00,2023-02-14T17:43:35.488-08:00,36557,1.291021,1.296136,1.768325,27144.85,72,85,2023-02-21T13:09:34.948-08:00,698706575,0,5.850002,99.21422,1,0.55,0
2023-02-21T13:09:37.347-08:00,1677013777,34.06359307,-118.4509998,135.9377,0.44,1.02,136.7578143,80.4689448,8.493502632,15.41188528,-9999,332849.9464,-0.010604858,0.02331543,-1.212615967,332849.9214,0.200039721,-0.197308157,0.001766428,-0.063297406,0.080875896,0.342050612,0.11879015,-0.06698969,-0.088236094,XArbitraryZVertical,0.010709476,-0.097914077,0.099281064,0.990172368,-0.196030125,-0.001766427,-0.980596304,0,0,0,-1,-1,332829.6131,walking,2,2023-02-21T13:09:17.012-08:00,2023-02-14T17:43:35.488-08:00,36557,1.291021,1.296136,1.768325,27144.85,72,85,2023-02-21T13:09:34.948-08:00,698706575,0,5.850002,99.21422,1,0.55,0
2023-02-21T13:09:37.383-08:00,1677013777,34.06359307,-118.4509998,135.9377,0.44,1.02,136.7578143,80.4689448,8.493502632,15.41188528,-9999,332849.9814,-0.112136841,0.192581177,-1.017974854,332849.9514,0.210863573,-0.19758919,-0.012430168,-0.550667822,-0.159700572,0.47303611,0.183153048,-0.022775324,-0.233232379,XArbitraryZVertical,0.004229304,-0.098735237,0.105331001,0.989514428,-0.196290836,0.012429848,-0.980466902,0,0,0,-1,-1,332829.6131,walking,2,2023-02-21T13:09:17.012-08:00,2023-02-14T17:43:35.488-08:00,36557,1.291021,1.296136,1.768325,27144.85,72,85,2023-02-21T13:09:34.948-08:00,698706575,0,5.850002,99.21422,1,0.55,0
2023-02-21T13:09:37.418-08:00,1677013777,34.06359307,-118.4509998,135.9377,0.44,1.02,136.7578143,80.4689448,8.493502632,15.41188528,-9999,332850.0164,-0.153442383,0.065612793,-0.808151245,332850.0114,0.232766145,-0.20917711,-0.019326176,0.488273352,-0.141169816,0.252703756,0.029393613,0.144157678,0.145957708,XArbitraryZVertical,0.002577059,-0.104802843,0.11648257,0.987644358,-0.20761624,0.019324973,-0.978019416,0,0,0,-1,-1,332829.6131,walking,2,2023-02-21T13:09:17.012-08:00,2023-02-14T17:43:35.488-08:00,36557,1.291021,1.296136,1.768325,27144.85,72,85,2023-02-21T13:09:34.948-08:00,698706575,0,5.850002,99.21422,1,0.55,0
2023-02-21T13:09:37.452-08:00,1677013777,34.06359307,-118.4509998,135.9377,0.44,1.02,136.7578143,80.4689448,8.493502632,15.41188528,-9999,332850.0515,-0.17729187,-0.009552002,-0.834259033,332850.0415,0.241945047,-0.213921466,-0.004340123,0.684656024,-0.167918071,0.175428152,0.062923357,0.02570443,0.190514624,XArbitraryZVertical,0.010741258,-0.106236834,0.120217728,0.986988297,-0.212291598,0.00434011,-0.977196693,0,0,0,-1,-1,332829.6131,walking,2,2023-02-21T13:09:17.012-08:00,2023-02-14T17:43:35.488-08:00,36557,1.291021,1.296136,1.768325,27144.85,72,85,2023-02-21T13:09:34.948-08:00,698706575,0,5.850002,99.21422,1,0.55,0
2023-02-21T13:09:37.487-08:00,1677013777,34.06359307,-118.4509998,135.9377,0.44,1.02,136.7578143,80.4689448,8.493502632,15.41188528,-9999,332850.0865,-0.153366089,-0.080993652,-0.822372437,332850.0715,0.25032387,-0.219282076,0.007999306,0.233240783,-0.21040009,0.207116738,0.021263465,-0.12101385,0.099191606,XArbitraryZVertical,0.017604097,-0.108068385,0.123650611,0.986266572,-0.21752198,-0.007999221,-0.976022661,0,0,0,-1,-1,332829.6131,walking,2,2023-02-21T13:09:17.012-08:00,2023-02-14T17:43:35.488-08:00,36557,1.291021,1.296136,1.768325,27144.85,72,85,2023-02-21T13:09:34.948-08:00,698706575,0,5.850002,99.21422,1,0.55,0
2023-02-21T13:09:37.522-08:00,1677013777,34.06359307,-118.4509998,135.9377,0.44,1.02,136.7578143,80.4689448,8.493502632,15.41188528,-9999,332850.1215,-0.140670776,0.0675354,-0.710708618,332850.1015,0.257644778,-0.226405664,0.00975561,0.054382298,-0.23123166,0.194189906,0.084954605,-0.034235649,0.168799639,XArbitraryZVertical,0.019317951,-0.111401242,0.127096164,0.985425357,-0.224465698,-0.009755456,-0.974433184,0,0,0,-1,-1,332829.6131,walking,2,2023-02-21T13:09:17.012-08:00,2023-02-14T17:43:35.488-08:00,36557,1.291021,1.296136,1.768325,27144.85,72,85,2023-02-21T13:09:34.948-08:00,698706575,0,5.850002,99.21422,1,0.55,0
2023-02-21T13:09:37.557-08:00,1677013777,34.06359307,-118.4509998,135.9377,0.44,1.02,136.7578143,80.4689448,8.493502632,15.41188528,-9999,332850.1566,-0.212860107,-0.087982178,-0.760604858,332850.1315,0.263693979,-0.231843063,0.013303573,0.280795991,-0.129400104,0.151716486,0.089080587,0.080838569,0.262449861,XArbitraryZVertical,0.021754973,-0.113787097,0.129817459,0.984746887,-0.229751334,-0.013303181,-0.973158419,0,0,0,-1,-1,332829.6131,walking,2,2023-02-21T13:09:17.012-08:00,2023-02-14T17:43:35.488-08:00,36557,1.291021,1.296136,1.768325,27144.85,72,85,2023-02-21T13:09:34.948-08:00,698706575,0,5.850002,99.21422,1,0.55,0
2023-02-21T13:09:37.593-08:00,1677013777,34.06359307,-118.4509998,135.9377,0.44,1.02,136.7578143,80.4689448,8.493502632,15.41188528,-9999,332850.1916,-0.268753052,-0.04624939,-0.853271484,332850.1616,0.271861119,-0.236635778,0.024763368,0.501926005,-0.139508665,0.134837106,0.062471375,-0.062061686,0.226320207,XArbitraryZVertical,0.028176319,-0.115278103,0.133106571,0.983971381,-0.234361619,-0.024760837,-0.971834123,0,0,0,-1,-1,332829.6131,walking,2,2023-02-21T13:09:17.012-08:00,2023-02-14T17:43:35.488-08:00,36557,1.291109,1.296136,1.768325,27144.85,72,85,2023-02-21T13:09:37.511-08:00,698706577.6,0,5.970001,99.21353,1,0.55,0
2023-02-21T13:09:37.627-08:00,1677013777,34.06359307,-118.4509998,135.9377,0.44,1.02,136.7578143,80.4689448,8.493502632,15.41188528,-9999,332850.2266,-0.212341309,-0.155410767,-0.85319519,332850.2216,0.280481791,-0.235233788,0.03448449,-0.391436994,-0.017455537,0.054428987,0.008093536,-0.190970957,0.127765536,XArbitraryZVertical,0.033354535,-0.113783187,0.136791931,0.983477955,-0.232931778,-0.034477655,-0.971881747,0,0,0,-1,-1,332829.6131,walking,2,2023-02-21T13:09:17.012-08:00,2023-02-14T17:43:35.488-08:00,36557,1.291109,1.296136,1.768325,27144.85,72,85,2023-02-21T13:09:37.511-08:00,698706577.6,0,5.970001,99.21353,1,0.55,0
2023-02-21T13:09:37.662-08:00,1677013777,34.06359307,-118.4509998,135.9377,0.44,1.02,136.7578143,80.4689448,8.493502632,15.41188528,-9999,332850.2617,-0.235610962,-0.050765991,-1.01864624,332850.2516,0.280187101,-0.237463458,0.027149757,0.226591885,-0.049984649,0.046758644,0.02787596,0.066346236,0.017310202,XArbitraryZVertical,0.029885583,-0.115399527,0.137047708,0.983365519,-0.235151336,-0.027146421,-0.971579611,0,0,0,-1,-1,332829.6131,walking,2,2023-02-21T13:09:17.012-08:00,2023-02-14T17:43:35.488-08:00,36557,1.291109,1.296136,1.768325,27144.85,72,85,2023-02-21T13:09:37.511-08:00,698706577.6,0,5.970001,99.21353,1,0.55,0
2023-02-21T13:09:37.698-08:00,1677013777,34.06359307,-118.4509998,135.9377,0.44,1.02,136.7578143,80.4689448,8.493502632,15.41188528,-9999,332850.2967,-0.243713379,-0.04574585,-1.154586792,332850.2817,0.283436717,-0.240656634,0.040951776,0.52617538,-0.193502277,-0.054636613,0.024197102,-0.090102166,-0.078521729,XArbitraryZVertical,0.037073804,-0.11593884,0.137760683,0.982957639,-0.238140568,-0.040940329,-0.970367432,0,0,0,-1,-1,332829.6131,walking,2,2023-02-21T13:09:17.012-08:00,2023-02-14T17:43:35.488-08:00,36557,1.291109,1.296136,1.768325,27144.85,72,85,2023-02-21T13:09:37.511-08:00,698706577.6,0,5.970001,99.21353,1,0.55,0
2023-02-21T13:09:37.733-08:00,1677013777,34.06359307,-118.4509998,135.9377,0.44,1.02,136.7578143,80.4689448,8.493502632,15.41188528,-9999,332850.3317,-0.228103638,-0.209671021,-1.04876709,332850.3117,0.284722603,-0.244414271,0.051545886,0.197053209,-0.025765464,-0.01098381,-0.027162686,0.002878033,-0.167362034,XArbitraryZVertical,0.042609136,-0.117000883,0.137666332,0.982620582,-0.241666645,-0.051523063,-0.968990505,0,0,0,-1,-1,332829.6131,walking,2,2023-02-21T13:09:17.012-08:00,2023-02-14T17:43:35.488-08:00,36557,1.291109,1.296136,1.768325,27144.85,72,85,2023-02-21T13:09:37.511-08:00,698706577.6,0,5.970001,99.21353,1,0.55,0
2023-02-21T13:09:37.768-08:00,1677013777,34.06359307,-118.4509998,135.9377,0.44,1.02,136.7578143,80.4689448,8.493502632,15.41188528,-9999,332850.3668,-0.328125,0.040908813,-1.057647705,332850.3417,0.284610902,-0.247416134,0.05116946,-0.143416852,-0.225377843,-0.061578047,0.016475439,-0.158523902,-0.080487669,XArbitraryZVertical,0.042624358,-0.11850506,0.137571016,0.982452994,-0.244579047,-0.051147133,-0.968279421,0,0,0,-1,-1,332829.6131,walking,2,2023-02-21T13:09:17.012-08:00,2023-02-14T17:43:35.488-08:00,36557,1.291109,1.296136,1.768325,27144.85,72,85,2023-02-21T13:09:37.511-08:00,698706577.6,0,5.970001,99.21353,1,0.55,0
2023-02-21T13:09:37.803-08:00,1677013777,34.06359307,-118.4509998,135.9377,0.44,1.02,136.7578143,80.4689448,8.493502632,15.41188528,-9999,332850.4018,-0.213729858,-0.104064941,-1.092330933,332850.3718,0.282519444,-0.251454659,0.055869636,0.478970408,-0.042321671,-0.169237703,-0.067096293,0.069039419,-0.092697859,XArbitraryZVertical,0.045082425,-0.120197506,0.136157036,0.982334567,-0.248424903,-0.055840574,-0.967040241,0,0,0,-1,-1,332829.6131,walking,2,2023-02-21T13:09:17.012-08:00,2023-02-14T17:43:35.488-08:00,36557,1.291109,1.296136,1.768325,27144.85,72,85,2023-02-21T13:09:37.511-08:00,698706577.6,0,5.970001,99.21353,1,0.55,0
2023-02-21T13:09:37.838-08:00,1677013777,34.06359307,-118.4509998,135.9377,0.44,1.02,136.7578143,80.4689448,8.493502632,15.41188528,-9999,332850.4368,-0.301834106,-0.068786621,-1.178527832,332850.4318,0.274559766,-0.251388343,0.084023143,0.088492602,0.032975148,-0.221607789,-0.048927337,-0.02102565,-0.171155751,XArbitraryZVertical,0.058416608,-0.118372249,0.13043406,0.982630303,-0.247871354,-0.083924316,-0.965151012,0,0,0,-1,-1,332829.6131,walking,2,2023-02-21T13:09:17.012-08:00,2023-02-14T17:43:35.488-08:00,36557,1.291109,1.296136,1.768325,27144.85,72,85,2023-02-21T13:09:37.511-08:00,698706577.6,0,5.970001,99.21353,1,0.55,0
2023-02-21T13:09:37.873-08:00,1677013777,34.06359307,-118.4509998,135.9377,0.44,1.02,136.7578143,80.4689448,8.493502632,15.41188528,-9999,332850.4718,-0.241989136,-0.046096802,-1.058441162,332850.4618,0.269771502,-0.249787058,0.088223951,0.063692071,0.010367306,-0.124343827,-0.032465532,0.009358928,-0.18122679,XArbitraryZVertical,0.060092155,-0.117433581,0.127856544,0.982980655,-0.246236235,-0.088109545,-0.96519655,0,0,0,-1,-1,332829.6131,walking,2,2023-02-21T13:09:17.012-08:00,2023-02-14T17:43:35.488-08:00,36557,1.291109,1.296136,1.768325,27144.85,72,85,2023-02-21T13:09:37.511-08:00,698706577.6,0,5.970001,99.21353,1,0.55,0
2023-02-21T13:09:37.908-08:00,1677013777,34.06359307,-118.4509998,135.9377,0.44,1.02,136.7578143,80.4689448,8.493502632,15.41188528,-9999,332850.5069,-0.325500488,-0.041046143,-0.918762207,332850.4919,0.266756201,-0.251480359,0.085803488,-0.27741763,-0.157854795,-0.052559216,0.01920861,0.037037954,-0.027815878,XArbitraryZVertical,0.058834006,-0.118522472,0.126480868,0.983103992,-0.247922584,-0.08569824,-0.964981973,0,0,0,-1,-1,332829.6131,walking,2,2023-02-21T13:09:17.012-08:00,2023-02-14T17:43:35.488-08:00,36557,1.291109,1.296136,1.768325,27144.85,72,85,2023-02-21T13:09:37.511-08:00,698706577.6,0,5.970001,99.21353,1,0.55,0
2023-02-21T13:09:37.943-08:00,1677013777,34.06359307,-118.4509998,135.9377,0.44,1.02,136.7578143,80.4689448,8.493502632,15.41188528,-9999,332850.5419,-0.36807251,-0.006881714,-0.904556274,332850.5219,0.262933137,-0.255896778,0.077484777,-0.146600291,-0.084300213,-0.076042138,-0.090267152,0.073745154,0.047419727,XArbitraryZVertical,0.054798836,-0.121367667,0.125019468,0.983176973,-0.252353638,-0.077407263,-0.964533925,0,0,0,-1,-1,332829.6131,walking,2,2023-02-21T13:09:17.012-08:00,2023-02-14T17:43:35.488-08:00,36557,1.291109,1.296136,1.768325,27144.85,72,85,2023-02-21T13:09:37.511-08:00,698706577.6,0,5.970001,99.21353,1,0.55,0
2023-02-21T13:09:37.978-08:00,1677013777,34.06359307,-118.4509998,135.9377,0.44,1.02,136.7578143,80.4689448,8.493502632,15.41188528,-9999,332850.5769,-0.243774414,-0.051528931,-0.920211792,332850.5519,0.260229099,-0.253946701,0.078757249,0.047550917,0.144846022,-0.093694702,-0.117625177,0.071794137,0.060371816,XArbitraryZVertical,0.055138953,-0.120397837,0.123660259,0.983449139,-0.250447303,-0.078675859,-0.964928091,0,0,0,-1,-1,332829.6131,walking,2,2023-02-21T13:09:17.012-08:00,2023-02-14T17:43:35.488-08:00,36557,1.291109,1.296136,1.768325,27144.85,72,85,2023-02-21T13:09:37.511-08:00,698706577.6,0,5.970001,99.21353,1,0.55,0
2023-02-21T13:09:38.013-08:00,1677013777,34.06359307,-118.4509998,135.9377,0.44,1.02,136.7578143,80.4689448,8.493502632,15.41188528,-9999,332850.612,-0.224578857,0.010360718,-0.948898315,332850.5819,0.257776295,-0.25016133,0.07314985,-0.436205208,0.087951452,0.038161267,0.002772883,0.034632474,0.061816752,XArbitraryZVertical,0.052004371,-0.118973977,0.122918132,0.983886034,-0.246898234,-0.07308463,-0.966281474,0,0,0,-1,-1,332829.6131,walking,2,2023-02-21T13:09:17.012-08:00,2023-02-14T17:43:35.488-08:00,36557,1.291109,1.296136,1.768325,27144.85,72,85,2023-02-21T13:09:37.511-08:00,698706577.6,0,5.970001,99.21353,1,0.55,0
2023-02-21T13:09:38.048-08:00,1677013777,34.06359307,-118.4509998,135.9377,0.44,1.02,136.7578143,80.4689448,8.493502632,15.41188528,-9999,332850.647,-0.208618164,-0.072372437,-0.904327393,332850.642,0.259183453,-0.251098732,0.055613509,-0.151310295,0.006963056,0.034872029,0.041388705,0.028256342,0.030420661,XArbitraryZVertical,0.043528844,-0.120557089,0.124710266,0.983879332,-0.248084247,-0.055584848,-0.967142463,0,0,0,-1,-1,332829.6131,walking,2,2023-02-21T13:09:17.012-08:00,2023-02-14T17:43:35.488-08:00,36557,1.291109,1.296136,1.768325,27144.85,72,85,2023-02-21T13:09:37.511-08:00,698706577.6,0,5.970001,99.21353,1,0.55,0
2023-02-21T13:09:38.083-08:00,1677013777,34.06359307,-118.4509998,135.9377,0.44,1.02,136.7578143,80.4689448,8.493502632,15.41188528,-9999,332850.682,-0.259368896,-0.022079468,-0.827789307,332850.672,0.25743095,-0.252644187,0.048527294,-0.257843286,-0.063970439,-0.028693799,0.018729076,0.002701361,0.106702447,XArbitraryZVertical,0.040035754,-0.121818049,0.124268791,0.98392818,-0.249670818,-0.048508249,-0.967114985,0,0,0,-1,-1,332829.6131,walking,2,2023-02-21T13:09:17.012-08:00,2023-02-14T17:43:35.488-08:00,36557,1.291109,1.296136,1.768325,27144.85,72,85,2023-02-21T13:09:37.511-08:00,698706577.6,0,5.970001,99.21353,1,0.55,0
2023-02-21T13:09:38.118-08:00,1677013777,34.06359307,-118.4509998,135.9377,0.44,1.02,136.7578143,80.4689448,8.493502632,15.41188528,-9999,332850.7171,-0.240112305,-0.098815918,-0.804458618,332850.7021,0.254826659,-0.254332104,0.0452263,-0.043504849,-0.07528761,-0.072279327,-0.006577492,-0.006318055,0.13867116,XArbitraryZVertical,0.038358045,-0.122913402,0.123166207,0.98399748,-0.25134179,-0.045210883,-0.966841936,0,0,0,-1,-1,332829.6131,walking,2,2023-02-21T13:09:17.012-08:00,2023-02-14T17:43:35.488-08:00,36557,1.291109,1.296136,1.768325,27144.85,72,85,2023-02-21T13:09:37.511-08:00,698706577.6,0,5.970001,99.21353,1,0.55,0
2023-02-21T13:09:38.153-08:00,1677013778,34.06359135,-118.450996,135.8786,0.36,1.185116,-1,-1,8.507756271,15.38971485,-9999,332850.7521,-0.256652832,-0.101699829,-0.811645508,332850.7321,0.251722199,-0.25706708,0.042272197,-0.183882564,-0.143487498,-0.063015617,0.01785776,-0.066642374,0.164136589,XArbitraryZVertical,0.036881099,-0.124506489,0.121778168,0.984026437,-0.254017979,-0.042259607,-0.966275811,0,0,0,-1,-1,332829.6131,walking,2,2023-02-21T13:09:17.012-08:00,2023-02-14T17:43:35.488-08:00,36557,1.291109,1.296136,1.768325,27144.85,72,85,2023-02-21T13:09:37.511-08:00,698706577.6,0,5.970001,99.21353,1,0.55,0
2023-02-21T13:09:38.188-08:00,1677013778,34.06359135,-118.450996,135.8786,0.36,1.185116,-1,-1,8.507756271,15.38971485,-9999,332850.7871,-0.293289185,-0.094787598,-0.838623047,332850.7621,0.249692528,-0.261884193,0.038353814,-0.043461386,-0.16503188,-0.007024289,0.002057791,-0.063355431,0.153548062,XArbitraryZVertical,0.03511926,-0.127160816,0.120949251,0.983853636,-0.258710563,-0.038344413,-0.96519351,0,0,0,-1,-1,332829.6131,walking,2,2023-02-21T13:09:17.012-08:00,2023-02-14T17:43:35.488-08:00,36557,1.291109,1.296136,1.768325,27144.85,72,85,2023-02-21T13:09:37.511-08:00,698706577.6,0,5.970001,99.21353,1,0.55,0
2023-02-21T13:09:38.223-08:00,1677013778,34.06359135,-118.450996,135.8786,0.36,1.185116,-1,-1,8.507756271,15.38971485,-9999,332850.8222,-0.281509399,-0.082015991,-0.897842407,332850.7921,0.249934347,-0.266290421,0.038333084,-0.022510406,-0.138148129,0.034954756,-0.03366974,-0.04439421,0.132563055,XArbitraryZVertical,0.035391086,-0.129325072,0.120991895,0.983556525,-0.262961119,-0.038323697,-0.964044988,0,0,0,-1,-1,332829.6131,walking,2,2023-02-21T13:09:17.012-08:00,2023-02-14T17:43:35.488-08:00,36557,1.291109,1.296136,1.768325,27144.85,72,85,2023-02-21T13:09:37.511-08:00,698706577.6,0,5.970001,99.21353,1,0.55,0
2023-02-21T13:09:38.258-08:00,1677013778,34.06359135,-118.450996,135.8786,0.36,1.185116,-1,-1,8.507756271,15.38971485,-9999,332850.8572,-0.341690063,-0.050796509,-0.993286133,332850.8522,0.253548723,-0.276543296,0.030761596,-0.148948133,-0.13374573,0.11658746,-0.054611862,-0.037999369,0.011873364,XArbitraryZVertical,0.032535814,-0.13478314,0.123110641,0.982659031,-0.272902757,-0.030756744,-0.961549878,0,0,0,-1,-1,332829.6131,walking,2,2023-02-21T13:09:17.012-08:00,2023-02-14T17:43:35.488-08:00,36557,1.291109,1.296136,1.768325,27144.85,72,85,2023-02-21T13:09:37.511-08:00,698706577.6,0,5.970001,99.21353,1,0.55,0
2023-02-21T13:09:38.293-08:00,1677013778,34.06359135,-118.450996,135.8786,0.36,1.185116,-1,-1,8.507756271,15.38971485,-9999,332850.8922,-0.285675049,-0.042526245,-1.117614746,332850.8822,0.256632844,-0.280202927,0.028707055,0.023468221,-0.093214884,0.117076844,-0.058127463,-0.031492826,-0.060468972,XArbitraryZVertical,0.031963147,-0.136662582,0.12470988,0.982216494,-0.276436716,-0.028703112,-0.960603416,0,0,0,-1,-1,332829.6131,walking,2,2023-02-21T13:09:17.012-08:00,2023-02-14T17:43:35.488-08:00,36557,1.291109,1.296136,1.768325,27144.85,72,85,2023-02-21T13:09:37.511-08:00,698706577.6,0,5.970001,99.21353,1,0.55,0
2023-02-21T13:09:38.328-08:00,1677013778,34.06359135,-118.450996,135.8786,0.36,1.185116,-1,-1,8.507756271,15.38971485,-9999,332850.9273,-0.363128662,-0.031051636,-1.182693481,332850.9122,0.259661662,-0.28385868,0.031434866,0.200222373,-0.109304965,0.002491452,-0.010466337,0.010021593,-0.182612717,XArbitraryZVertical,0.033739001,-0.138231165,0.1259443,0.981779889,-0.279923618,-0.031429689,-0.959507644,0,0,0,-1,-1,332829.6131,walking,2,2023-02-21T13:09:17.012-08:00,2023-02-14T17:43:35.488-08:00,36557,1.291109,1.296136,1.768325,27144.85,72,85,2023-02-21T13:09:37.511-08:00,698706577.6,0,5.970001,99.21353,1,0.55,0
2023-02-21T13:09:38.363-08:00,1677013778,34.06359135,-118.450996,135.8786,0.36,1.185116,-1,-1,8.507756271,15.38971485,-9999,332850.9623,-0.27911377,-0.06022644,-1.163742065,332850.9423,0.262055656,-0.284415339,0.04131994,0.545103729,0.077125892,-0.00910555,-0.074348956,0.023211248,-0.231606126,XArbitraryZVertical,0.038788048,-0.13781212,0.126403944,0.981593269,-0.280356824,-0.041308183,-0.959006608,0,0,0,-1,-1,332829.6131,walking,2,2023-02-21T13:09:17.012-08:00,2023-02-14T17:43:35.488-08:00,36557,1.291109,1.296136,1.768325,27144.85,72,85,2023-02-21T13:09:37.511-08:00,698706577.6,0,5.970001,99.21353,1,0.55,0
2023-02-21T13:09:38.398-08:00,1677013778,34.06359135,-118.450996,135.8786,0.36,1.185116,-1,-1,8.507756271,15.38971485,-9999,332850.9973,-0.22454834,-0.033782959,-1.226531982,332850.9723,0.268197051,-0.280804648,0.058779328,0.602042139,0.175689414,0.090777136,-0.00246346,-0.001480959,-0.204568624,XArbitraryZVertical,0.047536739,-0.134735169,0.128248895,0.981396309,-0.27665025,-0.058745489,-0.959173381,0,0,0,-1,-1,332829.6131,walking,2,2023-02-21T13:09:17.012-08:00,2023-02-14T17:43:35.488-08:00,36557,1.291109,1.296136,1.768325,27144.85,72,85,2023-02-21T13:09:37.511-08:00,698706577.6,0,5.970001,99.21353,1,0.55,0
2023-02-21T13:09:38.433-08:00,1677013778,34.06359135,-118.450996,135.8786,0.36,1.185116,-1,-1,8.507756271,15.38971485,-9999,332851.0323,-0.158340454,-0.121398926,-1.119003296,332851.0023,0.275381663,-0.273471124,0.076546324,0.732088625,0.343614578,0.059449941,0.037869573,0.052820459,-0.253816843,XArbitraryZVertical,0.056243579,-0.129717981,0.130709103,0.98128744,-0.269284338,-0.076471597,-0.960019827,0,0,0,-1,-1,332829.6131,walking,2,2023-02-21T13:09:17.012-08:00,2023-02-14T17:43:35.488-08:00,36557,1.291109,1.296136,1.768325,27144.85,72,85,2023-02-21T13:09:37.511-08:00,698706577.6,0,5.970001,99.21353,1,0.55,0
2023-02-21T13:09:38.468-08:00,1677013778,34.06359135,-118.450996,135.8786,0.36,1.185116,-1,-1,8.507756271,15.38971485,-9999,332851.0674,-0.108947754,-0.038650513,-0.959457397,332851.0624,0.289578978,-0.249927584,0.113514636,0.462925375,0.49906233,0.029458687,0.10742107,0.00859572,-0.022626638,XArbitraryZVertical,0.07365001,-0.115015068,0.135932121,0.981259165,-0.245741978,-0.113271013,-0.962694407,0,0,0,-1,-1,332829.6131,walking,2,2023-02-21T13:09:17.012-08:00,2023-02-14T17:43:35.488-08:00,36557,1.291109,1.296136,1.768325,27144.85,72,85,2023-02-21T13:09:37.511-08:00,698706577.6,0,5.970001,99.21353,1,0.55,0
2023-02-21T13:09:38.503-08:00,1677013778,34.06359135,-118.450996,135.8786,0.36,1.185116,-1,-1,8.507756271,15.38971485,-9999,332851.1024,-0.10647583,-0.04486084,-1.01071167,332851.0924,0.295549484,-0.233606008,0.126912347,0.540240884,0.624744117,0.144292727,0.126445428,0.075805932,-0.019879937,XArbitraryZVertical,0.079419263,-0.105762241,0.138630419,0.981472587,-0.229625329,-0.126571923,-0.965013862,0,0,0,-1,-1,332829.6131,walking,2,2023-02-21T13:09:17.012-08:00,2023-02-14T17:43:35.488-08:00,36557,1.291109,1.296136,1.768325,27144.85,72,85,2023-02-21T13:09:37.511-08:00,698706577.6,0,5.970001,99.21353,1,0.55,0
2023-02-21T13:09:38.538-08:00,1677013778,34.06359135,-118.450996,135.8786,0.36,1.185116,-1,-1,8.507756271,15.38971485,-9999,332851.1374,-0.045654297,-0.147262573,-1.026046753,332851.1224,0.303271248,-0.215055529,0.14187687,0.540554523,0.627395988,0.122703455,0.132827342,0.079633802,-0.046813428,XArbitraryZVertical,0.08583155,-0.095177589,0.142285556,0.981493203,-0.211257488,-0.14140138,-0.967148364,0,0,0,-1,-1,332829.6131,walking,2,2023-02-21T13:09:17.012-08:00,2023-02-14T17:43:35.488-08:00,36557,1.291109,1.296136,1.768325,27144.85,72,85,2023-02-21T13:09:37.511-08:00,698706577.6,0,5.970001,99.21353,1,0.55,0
2023-02-21T13:09:38.573-08:00,1677013778,34.06359135,-118.450996,135.8786,0.36,1.185116,-1,-1,8.507756271,15.38971485,-9999,332851.1725,-0.126037598,-0.220977783,-0.872817993,332851.1525,0.309550456,-0.198990568,0.154765969,0.408176541,0.487713844,0.115057208,0.152272165,-0.009288013,-0.045533717,XArbitraryZVertical,0.091270813,-0.085991758,0.145349493,0.981401283,-0.195317179,-0.154148877,-0.968550086,0,0,0,-1,-1,332829.6131,walking,2,2023-02-21T13:09:17.012-08:00,2023-02-14T17:43:35.488-08:00,36557,1.291109,1.296136,1.768325,27144.85,72,85,2023-02-21T13:09:37.511-08:00,698706577.6,0,5.970001,99.21353,1,0.55,0
2023-02-21T13:09:38.608-08:00,1677013778,34.06359135,-118.450996,135.8786,0.36,1.185116,-1,-1,8.507756271,15.38971485,-9999,332851.2075,-0.148788452,-0.134643555,-0.819137573,332851.1825,0.314686394,-0.186882593,0.16285058,0.266448319,0.383233845,0.118278004,0.057300851,-0.058846042,0.09676975,XArbitraryZVertical,0.094552206,-0.079158241,0.147999035,0.981269604,-0.183338419,-0.162131727,-0.969587684,0,0,0,-1,-1,332829.6131,walking,2,2023-02-21T13:09:17.012-08:00,2023-02-14T17:43:35.488-08:00,36557,1.291109,1.296136,1.768325,27144.85,72,85,2023-02-21T13:09:37.511-08:00,698706577.6,0,5.970001,99.21353,1,0.55,0
2023-02-21T13:09:38.643-08:00,1677013778,34.06359135,-118.450996,135.8786,0.36,1.185116,-1,-1,8.507756271,15.38971485,-9999,332851.2425,-0.124191284,-0.161315918,-0.736495972,332851.2125,0.318733146,-0.17559544,0.172110026,0.414395273,0.402959734,0.050213132,0.01816754,0.035183698,0.149457812,XArbitraryZVertical,0.09839633,-0.072666534,0.15005571,0.981081492,-0.172113448,-0.171261579,-0.970075488,0,0,0,-1,-1,332829.6131,walking,2,2023-02-21T13:09:17.012-08:00,2023-02-14T17:43:35.488-08:00,36557,1.291109,1.296136,1.768325,27144.85,72,85,2023-02-21T13:09:37.511-08:00,698706577.6,0,5.970001,99.21353,1,0.55,0
2023-02-21T13:09:38.678-08:00,1677013778,34.06359135,-118.450996,135.8786,0.36,1.185116,-1,-1,8.507756271,15.38971485,-9999,332851.2776,-0.135131836,-0.215072632,-0.703613281,332851.2726,0.32192321,-0.151909752,0.196765939,0.289477646,0.3872132,-0.075524919,0.003585011,-0.001995802,0.275776029,XArbitraryZVertical,0.108777705,-0.058842013,0.151675512,0.980662757,-0.148406163,-0.195498705,-0.969410062,0,0,0,-1,-1,332829.6131,walking,2,2023-02-21T13:09:17.012-08:00,2023-02-14T17:43:35.488-08:00,36557,1.291109,1.296136,1.768325,27144.85,72,85,2023-02-21T13:09:37.511-08:00,698706577.6,0,5.970001,99.21353,1,0.55,0
2023-02-21T13:09:38.713-08:00,1677013778,34.06359135,-118.450996,135.8786,0.36,1.185116,-1,-1,8.507756271,15.38971485,-9999,332851.3126,-0.180587769,-0.199432373,-0.77444458,332851.3026,0.319660972,-0.140015427,0.203936802,0.239766225,0.395312309,-0.121197969,-0.013129219,0.050136581,0.258694947,XArbitraryZVertical,0.111323081,-0.052539694,0.15090673,0.980853625,-0.136666298,-0.202526107,-0.969693482,0,0,0,-1,-1,332829.6131,walking,2,2023-02-21T13:09:17.012-08:00,2023-02-14T17:43:35.488-08:00,36557,1.291109,1.296136,1.768325,27144.85,72,85,2023-02-21T13:09:37.511-08:00,698706577.6,0,5.970001,99.21353,1,0.55,0
2023-02-21T13:09:38.748-08:00,1677013778,34.06359135,-118.450996,135.8786,0.36,1.185116,-1,-1,8.507756271,15.38971485,-9999,332851.3476,-0.094558716,-0.247360229,-0.874008179,332851.3326,0.316200712,-0.125982808,0.213302413,0.298932612,0.44516018,-0.205138072,-0.034958377,-0.009228125,0.175661385,XArbitraryZVertical,0.114767697,-0.045085062,0.149620127,0.981024671,-0.122802228,-0.211688623,-0.969591439,0,0,0,-1,-1,332829.6131,walking,2,2023-02-21T13:09:17.012-08:00,2023-02-14T17:43:35.488-08:00,36557,1.291109,1.296136,1.768325,27144.85,72,85,2023-02-21T13:09:37.511-08:00,698706577.6,0,5.970001,99.21353,1,0.55,0
2023-02-21T13:09:38.783-08:00,1677013778,34.06359135,-118.450996,135.8786,0.36,1.185116,-1,-1,8.507756271,15.38971485,-9999,332851.3827,-0.11151123,-0.330368042,-0.852783203,332851.3626,0.310395978,-0.112378044,0.222665946,0.241386965,0.368005395,-0.245621681,0.016782805,-0.042078406,0.093595564,XArbitraryZVertical,0.118221679,-0.037994225,0.147211782,0.981279114,-0.10937313,-0.22083053,-0.96916014,0,0,0,-1,-1,332829.6131,walking,2,2023-02-21T13:09:17.012-08:00,2023-02-14T17:43:35.488-08:00,36557,1.291109,1.296136,1.768325,27144.85,72,85,2023-02-21T13:09:37.511-08:00,698706577.6,0,5.970001,99.21353,1,0.55,0
2023-02-21T13:09:38.818-08:00,1677013778,34.06359135,-118.450996,135.8786,0.36,1.185116,-1,-1,8.507756271,15.38971485,-9999,332851.4177,-0.097671509,-0.286621094,-0.963165283,332851.3927,0.302864885,-0.100269454,0.229417383,0.156559855,0.337714732,-0.279280633,-0.014032453,-0.102957845,0.11612469,XArbitraryZVertical,0.120515478,-0.031969971,0.144004411,0.981690685,-0.09747877,-0.227410212,-0.968907893,0,0,0,-1,-1,332829.6131,walking,2,2023-02-21T13:09:17.012-08:00,2023-02-14T17:43:35.488-08:00,36557,1.291109,1.296136,1.768325,27144.85,72,85,2023-02-21T13:09:37.511-08:00,698706577.6,0,5.970001,99.21353,1,0.55,0
2023-02-21T13:09:38.853-08:00,1677013778,34.06359135,-118.450996,135.8786,0.36,1.185116,-1,-1,8.507756271,15.38971485,-9999,332851.4527,-0.032089233,-0.303909302,-1.021316528,332851.4227,0.295748448,-0.088156204,0.235921432,0.255094171,0.364167511,-0.202970102,-0.016264416,-0.048838496,0.024264097,XArbitraryZVertical,0.122736982,-0.025957341,0.141040751,0.982022993,-0.085603245,-0.233738989,-0.968523681,0,0,0,-1,-1,332829.6131,walking,2,2023-02-21T13:09:17.012-08:00,2023-02-14T17:43:35.488-08:00,36557,1.291109,1.296136,1.768325,27144.85,72,85,2023-02-21T13:09:37.511-08:00,698706577.6,0,5.970001,99.21353,1,0.55,0
2023-02-21T13:09:38.888-08:00,1677013778,34.06359135,-118.450996,135.8786,0.36,1.185116,-1,-1,8.507756271,15.38971485,-9999,332851.4878,-0.050872803,-0.267883301,-1.090896606,332851.4827,0.286488871,-0.069429773,0.244235676,0.047482263,0.125379249,-0.199406415,0.040658057,-0.011374325,-0.114458561,XArbitraryZVertical,0.125412113,-0.016717445,0.137421953,0.982398895,-0.067315154,-0.241814747,-0.967984676,0,0,0,-1,-1,332829.6131,walking,2,2023-02-21T13:09:17.012-08:00,2023-02-14T17:43:35.488-08:00,36557,1.291109,1.296136,1.768325,27144.85,72,85,2023-02-21T13:09:37.511-08:00,698706577.6,0,5.970001,99.21353,1,0.55,0
2023-02-21T13:09:38.923-08:00,1677013778,34.06359135,-118.450996,135.8786,0.36,1.185116,-1,-1,8.507756271,15.38971485,-9999,332851.5228,-0.065658569,-0.286590576,-1.137710571,332851.5128,0.279049423,-0.064295271,0.245852684,0.03570012,0.133000612,-0.256216675,-0.032285515,-0.067041337,-0.131423891,XArbitraryZVertical,0.12579904,-0.014545726,0.134048854,0.982849841,-0.062318966,-0.243383452,-0.967926025,0,0,0,-1,-1,332829.6131,walking,2,2023-02-21T13:09:17.012-08:00,2023-02-14T17:43:35.488-08:00,36557,1.291109,1.296136,1.768325,27144.85,72,85,2023-02-21T13:09:37.511-08:00,698706577.6,0,5.970001,99.21353,1,0.55,0
2023-02-21T13:09:38.959-08:00,1677013778,34.06359135,-118.450996,135.8786,0.36,1.185116,-1,-1,8.507756271,15.38971485,-9999,332851.5578,-0.136749268,-0.368743896,-1.099319458,332851.5428,0.271013173,-0.058660197,0.246890994,0.0427396,0.093915001,-0.245168015,0.0186866,-0.040308073,-0.177529275,XArbitraryZVertical,0.12588254,-0.012208892,0.130428735,0.983357959,-0.056848824,-0.244390413,-0.968009055,0,0,0,-1,-1,332829.6131,walking,2,2023-02-21T13:09:17.012-08:00,2023-02-14T17:43:35.488-08:00,36557,1.291109,1.296136,1.768325,27144.85,72,85,2023-02-21T13:09:37.511-08:00,698706577.6,0,5.970001,99.21353,1,0.55,0
2023-02-21T13:09:38.994-08:00,1677013778,34.06359135,-118.450996,135.8786,0.36,1.185116,-1,-1,8.507756271,15.38971485,-9999,332851.5928,-0.047653198,-0.313735962,-1.135147095,332851.5728,0.261631825,-0.051422323,0.248955578,0.14881523,0.264576197,-0.340494126,-0.095173977,-0.091132537,-0.132330537,XArbitraryZVertical,0.126382606,-0.009101436,0.126226478,0.983875724,-0.049815025,-0.246391878,-0.96788919,0,0,0,-1,-1,332829.6131,walking,2,2023-02-21T13:09:17.012-08:00,2023-02-14T17:43:35.488-08:00,36557,1.291109,1.296136,1.768325,27144.85,72,85,2023-02-21T13:09:37.511-08:00,698706577.6,0,5.970001,99.21353,1,0.55,0
2023-02-21T13:09:39.029-08:00,1677013778,34.06359135,-118.450996,135.8786,0.36,1.185116,-1,-1,8.507756271,15.38971485,-9999,332851.6279,-0.002624512,-0.199951172,-1.041519165,332851.6029,0.254574288,-0.040532332,0.252499248,-0.103118807,0.286857098,-0.130669698,-0.008416839,-0.063911214,-0.167651296,XArbitraryZVertical,0.127422218,-0.003960082,0.123376526,0.984137232,-0.039236352,-0.249824733,-0.967495799,0,0,0,-1,-1,332829.6131,walking,2,2023-02-21T13:09:17.012-08:00,2023-02-14T17:43:35.488-08:00,36557,1.291109,1.296136,1.768325,27144.85,72,85,2023-02-21T13:09:37.511-08:00,698706577.6,0,5.970001,99.21353,1,0.55,0
2023-02-21T13:09:39.064-08:00,1677013778,34.06359135,-118.450996,135.8786,0.36,1.185116,-1,-1,8.507756271,15.38971485,-9999,332851.6629,-0.093460083,-0.160995483,-0.948043823,332851.6329,0.248845152,-0.033356983,0.244663225,-0.286952019,0.138355225,-0.266524076,0.054513346,-0.002704486,-0.112733483,XArbitraryZVertical,0.123120822,-0.00128349,0.121137831,0.984969673,-0.032357577,-0.242229596,-0.969679236,0,0,0,-1,-1,332829.6131,walking,2,2023-02-21T13:09:17.012-08:00,2023-02-14T17:43:35.488-08:00,36557,1.291109,1.296136,1.768325,27144.85,72,85,2023-02-21T13:09:37.511-08:00,698706577.6,0,5.970001,99.21353,1,0.55,0
2023-02-21T13:09:39.099-08:00,1677013778,34.06359135,-118.450996,135.8786,0.36,1.185116,-1,-1,8.507756271,15.38971485,-9999,332851.6979,-0.056411743,-0.174591064,-0.941238403,332851.6929,0.233306742,-0.01302698,0.242432457,-0.212844178,0.329877257,-0.103458181,-0.049976386,0.049100921,0.020570815,XArbitraryZVertical,0.12084778,0.007651703,0.114750254,0.985986621,-0.012645673,-0.240064666,-0.970674515,0,0,0,-1,-1,332829.6131,walking,2,2023-02-21T13:09:17.012-08:00,2023-02-14T17:43:35.488-08:00,36557,1.291109,1.296136,1.768325,27144.85,72,85,2023-02-21T13:09:37.511-08:00,698706577.6,0,5.970001,99.21353,1,0.55,0
2023-02-21T13:09:39.134-08:00,1677013778,34.06359135,-118.450996,135.8786,0.36,1.185116,-1,-1,8.507756271,15.38971485,-9999,332851.733,0.023742676,-0.126205444,-0.950927734,332851.723,0.230998422,-0.002272524,0.235487181,-0.18243733,0.335846126,-0.076193504,-0.035921905,0.073938698,0.026353359,XArbitraryZVertical,0.116819013,0.012416859,0.114312009,0.986474505,-0.002209802,-0.233316749,-0.972398281,0,0,0,-1,-1,332829.6131,walking,2,2023-02-21T13:09:17.012-08:00,2023-02-14T17:43:35.488-08:00,36557,1.291109,1.296136,1.768325,27144.85,72,85,2023-02-21T13:09:37.511-08:00,698706577.6,0,5.970001,99.21353,1,0.55,0
2023-02-21T13:09:39.169-08:00,1677013778,34.06359135,-118.450996,135.8786,0.36,1.185116,-1,-1,8.507756271,15.38971485,-9999,332851.768,-0.008422852,-0.187149048,-0.910751343,332851.753,0.229253614,0.006058466,0.23037404,-0.217184067,0.185903773,-0.05168217,0.026679149,0.056924462,0.021964073,XArbitraryZVertical,0.113833531,0.016134857,0.113963368,0.986809995,0.005898371,-0.228341699,-0.973563194,0,0,0,-1,-1,332829.6131,walking,2,2023-02-21T13:09:17.012-08:00,2023-02-14T17:43:35.488-08:00,36557,1.291109,1.296136,1.768325,27144.85,72,85,2023-02-21T13:09:37.511-08:00,698706577.6,0,5.970001,99.21353,1,0.55,0
2023-02-21T13:09:39.204-08:00,1677013778,34.06359135,-118.450996,135.8786,0.36,1.185116,-1,-1,8.507756271,15.38971485,-9999,332851.803,-0.014770508,-0.174468994,-0.874679565,332851.783,0.226017551,0.010972292,0.222937867,-0.226806328,0.106327787,-0.159815729,-0.024921723,0.040797904,0.074360311,XArbitraryZVertical,0.1099122,0.017961263,0.112673213,0.987370955,0.010700536,-0.221095741,-0.975193381,0,0,0,-1,-1,332829.6131,walking,2,2023-02-21T13:09:17.012-08:00,2023-02-14T17:43:35.488-08:00,36557,1.291109,1.296136,1.768325,27144.85,72,85,2023-02-21T13:09:37.511-08:00,698706577.6,0,5.970001,99.21353,1,0.55,0
2023-02-21T13:09:39.239-08:00,1677013779,34.06357387,-118.4510276,117.9454,0.5284883,3.084946,-1,-1,2.332022315,17.71033163,-9999,332851.8381,-0.002288818,-0.25201416,-0.810897827,332851.813,0.220139111,0.014733878,0.217878597,-0.120109454,0.060163688,-0.207295597,-0.029155524,0.041689873,0.101572692,XArbitraryZVertical,0.107258638,0.019221609,0.109989407,0.987941484,0.014385022,-0.216158867,-0.976252258,0,0,0,-1,-1,332829.6131,walking,2,2023-02-21T13:09:17.012-08:00,2023-02-14T17:43:35.488-08:00,36557,1.291109,1.296136,1.768325,27144.85,72,85,2023-02-21T13:09:37.511-08:00,698706577.6,0,5.970001,99.21353,1,0.55,0
2023-02-21T13:09:39.274-08:00,1677013779,34.06357387,-118.4510276,117.9454,0.5284883,3.084946,-1,-1,2.332022315,17.71033163,-9999,332851.8731,-0.022750854,-0.287689209,-0.773666382,332851.8431,0.214500931,0.016805799,0.211961401,-0.285339624,-0.005464521,-0.141907707,-0.017115558,-0.037058696,0.15048629,XArbitraryZVertical,0.104276473,0.019630724,0.107324385,0.988545604,0.016428914,-0.210377812,-0.97748208,0,0,0,-1,-1,332829.6131,walking,2,2023-02-21T13:09:17.012-08:00,2023-02-14T17:43:35.488-08:00,36557,1.291109,1.296136,1.768325,27144.85,72,85,2023-02-21T13:09:37.511-08:00,698706577.6,0,5.970001,99.21353,1,0.55,0
2023-02-21T13:09:39.309-08:00,1677013779,34.06357387,-118.4510276,117.9454,0.5284883,3.084946,-1,-1,2.332022315,17.71033163,-9999,332851.9081,0.029785156,-0.236434937,-0.841293335,332851.9031,0.213495592,0.016018623,0.200332598,-0.083464086,-0.036703132,0.087784216,-0.005855663,-0.029581368,0.171982884,XArbitraryZVertical,0.098577421,0.018577776,0.106804081,0.989206864,0.015697585,-0.198995292,-0.97987473,0,0,0,-1,-1,332829.6131,walking,2,2023-02-21T13:09:17.012-08:00,2023-02-14T17:43:35.488-08:00,36557,1.291109,1.296136,1.768325,27144.85,72,85,2023-02-21T13:09:37.511-08:00,698706577.6,0,5.970001,99.21353,1,0.55,0
2023-02-21T13:09:39.344-08:00,1677013779,34.06357387,-118.4510276,117.9454,0.5284883,3.084946,-1,-1,2.332022315,17.71033163,-9999,332851.9432,0.006134033,-0.254776001,-0.864700317,332851.9331,0.217827826,0.013908028,0.193587763,-0.439498216,-0.054542653,0.180372894,-0.00224947,-0.080934569,0.123055875,XArbitraryZVertical,0.095315503,0.017385091,0.10885536,0.989324635,0.013647791,-0.192380875,-0.981225431,0,0,0,-1,-1,332829.6131,walking,2,2023-02-21T13:09:17.012-08:00,2023-02-14T17:43:35.488-08:00,36557,1.291109,1.296136,1.768325,27144.85,72,85,2023-02-21T13:09:37.511-08:00,698706577.6,0,5.970001,99.21353,1,0.55,0
2023-02-21T13:09:39.379-08:00,1677013779,34.06357387,-118.4510276,117.9454,0.5284883,3.084946,-1,-1,2.332022315,17.71033163,-9999,332851.9782,0.011383057,-0.091766357,-0.957839966,332851.9632,0.224105133,0.01070431,0.175830605,-0.622001886,-0.092074186,0.235595211,0.001149172,-0.037659451,0.099790096,XArbitraryZVertical,0.08665406,0.01511576,0.111851772,0.989824058,0.010539065,-0.174925998,-0.984525204,0,0,0,-1,-1,332829.6131,walking,2,2023-02-21T13:09:17.012-08:00,2023-02-14T17:43:35.488-08:00,36557,1.291109,1.296136,1.768325,27144.85,72,85,2023-02-21T13:09:37.511-08:00,698706577.6,0,5.970001,99.21353,1,0.55,0
2023-02-21T13:09:39.414-08:00,1677013779,34.06357387,-118.4510276,117.9454,0.5284883,3.084946,-1,-1,2.332022315,17.71033163,-9999,332852.0132,0.013305664,-0.134124756,-1.047546387,332851.9932,0.232199097,0.007422615,0.165166879,-0.109947897,-0.008798731,0.245323464,-0.007306268,0.071796089,0.012944579,XArbitraryZVertical,0.081505271,0.013229191,0.115747405,0.989840602,0.007321533,-0.164416939,-0.986363769,0,0,0,-1,-1,332829.6131,walking,2,2023-02-21T13:09:17.012-08:00,2023-02-14T17:43:35.488-08:00,36557,1.291109,1.296136,1.768325,27144.85,72,85,2023-02-21T13:09:37.511-08:00,698706577.6,0,5.970001,99.21353,1,0.55,0
2023-02-21T13:09:39.449-08:00,1677013779,34.06357387,-118.4510276,117.9454,0.5284883,3.084946,-1,-1,2.332022315,17.71033163,-9999,332852.0483,-0.004852295,-0.213638306,-1.033782959,332852.0232,0.239524817,0.006813532,0.160735246,-0.316859066,0.014387149,0.254928201,0.006580018,0.025919259,-0.060459435,XArbitraryZVertical,0.079299909,0.012963078,0.11936153,0.989594023,0.006725653,-0.160044014,-0.987086952,0,0,0,-1,-1,332829.6131,walking,2,2023-02-21T13:09:17.012-08:00,2023-02-14T17:43:35.488-08:00,36557,1.291109,1.296136,1.768325,27144.85,72,85,2023-02-21T13:09:37.511-08:00,698706577.6,0,5.970001,99.21353,1,0.55,0
2023-02-21T13:09:39.484-08:00,1677013779,34.06357387,-118.4510276,117.9454,0.5284883,3.084946,-1,-1,2.332022315,17.71033163,-9999,332852.0833,0.119995117,-0.039001465,-1.227645874,332852.0533,0.247002803,0.006141674,0.143827495,-0.670892835,0.038649745,0.206480995,0.000238921,-0.082147002,-0.038633823,XArbitraryZVertical,0.070926862,0.011890778,0.123087667,0.989786589,0.006078221,-0.143332124,-0.989655972,0,0,0,-1,-1,332829.6131,walking,2,2023-02-21T13:09:17.012-08:00,2023-02-14T17:43:35.488-08:00,36557,1.291109,1.296136,1.768325,27144.85,72,85,2023-02-21T13:09:37.511-08:00,698706577.6,0,5.970001,99.21353,1,0.55,0
2023-02-21T13:09:39.519-08:00,1677013779,34.06357387,-118.4510276,117.9454,0.5284883,3.084946,-1,-1,2.332022315,17.71033163,-9999,332852.1183,0.099365234,-0.162994385,-1.220214844,332852.1133,0.265492028,0.01340445,0.135528204,-0.270910025,0.154857248,0.433212966,0.116403319,-0.064242378,-0.203289628,XArbitraryZVertical,0.066229987,0.01558992,0.132499589,0.988844926,0.013281135,-0.135113686,-0.990741074,0,0,0,-1,-1,332829.6131,walking,2,2023-02-21T13:09:17.012-08:00,2023-02-14T17:43:35.488-08:00,36557,1.291109,1.296136,1.768325,27144.85,72,85,2023-02-21T13:09:37.511-08:00,698706577.6,0,5.970001,99.21353,1,0.55,0
2023-02-21T13:09:39.554-08:00,1677013779,34.06357387,-118.4510276,117.9454,0.5284883,3.084946,-1,-1,2.332022315,17.71033163,-9999,332852.1533,0.083068848,-0.092300415,-1.197799683,332852.1433,0.278324241,0.016899424,0.124469192,-0.39717856,0.183779776,0.416394174,0.054322813,-0.009015404,-0.236759782,XArbitraryZVertical,0.060421167,0.016978618,0.138960343,0.988307122,0.016767887,-0.124148048,-0.992121994,0,0,0,-1,-1,332829.6131,walking,2,2023-02-21T13:09:17.012-08:00,2023-02-14T17:43:35.488-08:00,36557,1.291109,1.296136,1.768325,27144.85,72,85,2023-02-21T13:09:37.511-08:00,698706577.6,0,5.970001,99.21353,1,0.55,0
2023-02-21T13:09:39.592-08:00,1677013779,34.06357387,-118.4510276,117.9454,0.5284883,3.084946,-1,-1,2.332022315,17.71033163,-9999,332852.1884,0.117202759,-0.035095215,-1.181304932,332852.1734,0.290994557,0.020688876,0.113961639,-0.243546069,0.186181933,0.415912509,0.07090798,0.086142488,-0.183121324,XArbitraryZVertical,0.054847916,0.018474767,0.145324304,0.987689839,0.020553209,-0.113715127,-0.993300796,0,0,0,-1,-1,332829.6131,walking,2,2023-02-21T13:09:17.012-08:00,2023-02-14T17:43:35.488-08:00,36557,1.291109,1.296136,1.768325,27144.85,72,85,2023-02-21T13:09:37.511-08:00,698706577.6,0,5.970001,99.21353,1,0.55,0
2023-02-21T13:09:39.624-08:00,1677013779,34.06357387,-118.4510276,117.9454,0.5284883,3.084946,-1,-1,2.332022315,17.71033163,-9999,332852.2234,0.145675659,-0.05229187,-1.115737915,332852.2034,0.304397913,0.025202236,0.108166187,-0.264180273,0.168768331,0.452326328,0.104861036,0.052672789,-0.182322681,XArbitraryZVertical,0.051519962,0.020631911,0.152051625,0.986813188,0.025052296,-0.107955389,-0.993840039,0,0,0,-1,-1,332829.6131,walking,2,2023-02-21T13:09:17.012-08:00,2023-02-14T17:43:35.488-08:00,36557,1.291109,1.296136,1.768325,27144.85,72,85,2023-02-21T13:09:37.511-08:00,698706577.6,0,5.970001,99.21353,1,0.55,0
2023-02-21T13:09:39.659-08:00,1677013779,34.06357387,-118.4510276,117.9454,0.5284883,3.084946,-1,-1,2.332022315,17.71033163,-9999,332852.2584,0.101486206,-0.063766479,-1.004180908,332852.2334,0.316947669,0.027878976,0.098262326,-0.358794123,0.113652617,0.337639838,0.117934763,0.045812398,-0.120948493,XArbitraryZVertical,0.046294207,0.021497348,0.158281611,0.986073739,0.027740898,-0.098104276,-0.994789422,0,0,0,-1,-1,332829.6131,walking,2,2023-02-21T13:09:17.012-08:00,2023-02-14T17:43:35.488-08:00,36557,1.291109,1.296136,1.768325,27144.85,72,85,2023-02-21T13:09:37.511-08:00,698706577.6,0,5.970001,99.21353,1,0.55,0
2023-02-21T13:09:39.694-08:00,1677013779,34.06357387,-118.4510276,117.9454,0.5284883,3.084946,-1,-1,2.332022315,17.71033163,-9999,332852.2935,0.059814453,-0.091033936,-0.903366089,332852.2634,0.326130076,0.030811417,0.088757483,-0.269132167,0.126337588,0.263358653,0.072265774,0.024050526,-0.024199784,XArbitraryZVertical,0.041272009,0.022387149,0.162838631,0.98553486,0.030685276,-0.088640995,-0.995590866,0,0,0,-1,-1,332829.6131,walking,2,2023-02-21T13:09:17.012-08:00,2023-02-14T17:43:35.488-08:00,36557,1.291109,1.296136,1.768325,27144.85,72,85,2023-02-21T13:09:37.511-08:00,698706577.6,0,5.970001,99.21353,1,0.55,0
2023-02-21T13:09:39.729-08:00,1677013779,34.06357387,-118.4510276,117.9454,0.5284883,3.084946,-1,-1,2.332022315,17.71033163,-9999,332852.3285,-0.000534058,-0.116836548,-0.804443359,332852.3235,0.339615506,0.035294129,0.077065405,-0.162459299,0.018301394,0.089741975,-0.013865538,-0.05608277,0.168820083,XArbitraryZVertical,0.034983327,0.023888565,0.169511139,0.984617448,0.035182066,-0.076989144,-0.996411026,0,0,0,-1,-1,332829.6131,walking,2,2023-02-21T13:09:17.012-08:00,2023-02-14T17:43:35.488-08:00,36557,1.291109,1.296136,1.768325,27144.85,72,85,2023-02-21T13:09:37.511-08:00,698706577.6,0,5.970001,99.21353,1,0.55,0
2023-02-21T13:09:39.764-08:00,1677013779,34.06357387,-118.4510276,117.9454,0.5284883,3.084946,-1,-1,2.332022315,17.71033163,-9999,332852.3635,-0.058349609,-0.112670898,-0.75642395,332852.3535,0.34144434,0.035437754,0.072774401,-0.148492888,0.008297896,0.050058406,-0.062085211,-0.038968906,0.21346277,XArbitraryZVertical,0.032836494,0.02362845,0.170390151,0.98454589,0.035336558,-0.072710179,-0.99672693,0,0,0,-1,-1,332829.6131,walking,2,2023-02-21T13:09:17.012-08:00,2023-02-14T17:43:35.488-08:00,36557,1.291109,1.296136,1.768325,27144.85,72,85,2023-02-21T13:09:37.511-08:00,698706577.6,0,5.970001,99.21353,1,0.55,0
2023-02-21T13:09:39.800-08:00,1677013779,34.06357387,-118.4510276,117.9454,0.5284883,3.084946,-1,-1,2.332022315,17.71033163,-9999,332852.3986,-0.062667847,-0.070205688,-0.815917969,332852.3836,0.34301945,0.036097121,0.067480915,-0.150436625,0.02686166,0.052127719,-0.094188899,-0.016615711,0.223621309,XArbitraryZVertical,0.030155275,0.023529128,0.171145092,0.984503072,0.036007144,-0.067429714,-0.997074068,0,0,0,-1,-1,332829.6131,walking,2,2023-02-21T13:09:17.012-08:00,2023-02-14T17:43:35.488-08:00,36557,1.291109,1.296136,1.768325,27144.85,72,85,2023-02-21T13:09:37.511-08:00,698706577.6,0,5.970001,99.21353,1,0.55,0
2023-02-21T13:09:39.835-08:00,1677013779,34.06357387,-118.4510276,117.9454,0.5284883,3.084946,-1,-1,2.332022315,17.71033163,-9999,332852.4336,-0.027374268,-0.126449585,-0.869155884,332852.4136,0.343578107,0.037214666,0.067497372,0.141108394,0.037760515,-0.028154675,-0.102184832,-0.00059282,0.175422609,XArbitraryZVertical,0.030061013,0.024089032,0.171437,0.984441676,0.037121356,-0.067446135,-0.997032106,0,0,0,-1,-1,332829.6131,walking,2,2023-02-21T13:09:17.012-08:00,2023-02-14T17:43:35.488-08:00,36557,1.291109,1.296136,1.768325,27144.85,72,85,2023-02-21T13:09:37.511-08:00,698706577.6,0,5.970001,99.21353,1,0.55,0
2023-02-21T13:09:39.870-08:00,1677013779,34.06357387,-118.4510276,117.9454,0.5284883,3.084946,-1,-1,2.332022315,17.71033163,-9999,332852.4686,-0.025482178,-0.170303345,-0.931396484,332852.4436,0.340783089,0.037471138,0.072896935,0.147616476,-0.072353937,-0.128609151,-0.064737141,-0.053617194,0.127488256,XArbitraryZVertical,0.03273172,0.024628956,0.17009868,0.984575274,0.037362877,-0.072832391,-0.99664408,0,0,0,-1,-1,332829.6131,walking,2,2023-02-21T13:09:17.012-08:00,2023-02-14T17:43:35.488-08:00,36557,1.291109,1.296136,1.768325,27144.85,72,85,2023-02-21T13:09:37.511-08:00,698706577.6,0,5.970001,99.21353,1,0.55,0
2023-02-21T13:09:39.905-08:00,1677013779,34.06357387,-118.4510276,117.9454,0.5284883,3.084946,-1,-1,2.332022315,17.71033163,-9999,332852.5037,-0.026153564,-0.135787964,-0.993133545,332852.4736,0.336600759,0.033626687,0.074251665,0.003104411,-0.188409239,-0.162591442,-0.050892211,-0.094197296,0.073218942,XArbitraryZVertical,0.033773418,0.022780112,0.167983115,0.984947789,0.033527713,-0.074183457,-0.996680856,0,0,0,-1,-1,332829.6131,walking,2,2023-02-21T13:09:17.012-08:00,2023-02-14T17:43:35.488-08:00,36557,1.291109,1.296136,1.768325,27144.85,72,85,2023-02-21T13:09:37.511-08:00,698706577.6,0,5.970001,99.21353,1,0.55,0
2023-02-21T13:09:39.940-08:00,1677013779,34.06357387,-118.4510276,117.9454,0.5284883,3.084946,-1,-1,2.332022315,17.71033163,-9999,332852.5387,-0.03062439,-0.181030273,-1.033462524,332852.5337,0.326323414,0.022686279,0.085634815,0.246336773,-0.217481375,-0.140556842,-0.051928595,-0.100047216,-0.016524553,XArbitraryZVertical,0.040392274,0.018134624,0.162758496,0.985671922,0.022601208,-0.085530192,-0.996079206,0,0,0,-1,-1,332829.6131,walking,2,2023-02-21T13:09:17.012-08:00,2023-02-14T17:43:35.488-08:00,36557,1.291109,1.296136,1.768325,27144.85,72,85,2023-02-21T13:09:37.511-08:00,698706577.6,0,5.970001,99.21353,1,0.55,0
2023-02-21T13:09:39.975-08:00,1677013779,34.06357387,-118.4510276,117.9454,0.5284883,3.084946,-1,-1,2.332022315,17.71033163,-9999,332852.5737,0.002120972,-0.161682129,-1.141876221,332852.5637,0.322758283,0.015320982,0.091652668,0.051628646,-0.264760673,-0.091699198,-0.040311009,-0.081723891,-0.093577921,XArbitraryZVertical,0.043984159,0.014913507,0.160852551,0.985885091,0.015256081,-0.091524407,-0.995685935,0,0,0,-1,-1,332829.6131,walking,2,2023-02-21T13:09:17.012-08:00,2023-02-14T17:43:35.488-08:00,36557,1.291109,1.296136,1.768325,27144.85,72,85,2023-02-21T13:09:37.511-08:00,698706577.6,0,5.970001,99.21353,1,0.55,0
2023-02-21T13:09:40.010-08:00,1677013779,34.06357387,-118.4510276,117.9454,0.5284883,3.084946,-1,-1,2.332022315,17.71033163,-9999,332852.6088,-0.02734375,-0.049697876,-1.117019653,332852.5937,0.31973287,0.006143375,0.091677723,0.014085636,-0.332264751,-0.140481189,-0.000197124,-0.04791598,-0.136923909,XArbitraryZVertical,0.044749838,0.010323663,0.159157358,0.986184364,0.006117538,-0.091549352,-0.99578172,0,0,0,-1,-1,332829.6131,walking,2,2023-02-21T13:09:17.012-08:00,2023-02-14T17:43:35.488-08:00,36557,1.291109,1.296136,1.768325,27144.85,72,85,2023-02-21T13:09:37.511-08:00,698706577.6,0,5.970001,99.21353,1,0.55,0
2023-02-21T13:09:40.045-08:00,1677013779,34.06357387,-118.4510276,117.9454,0.5284883,3.084946,-1,-1,2.332022315,17.71033163,-9999,332852.6438,-0.039779663,-0.109771729,-1.221755981,332852.6238,0.31539171,-0.001504975,0.093870309,0.108882189,-0.208490536,-0.137066111,-0.024594175,0.026532799,-0.143930078,XArbitraryZVertical,0.046453785,0.006625801,0.156835216,0.986509427,-0.001498349,-0.093732513,-0.99559629,0,0,0,-1,-1,332829.6131,walking,2,2023-02-21T13:09:17.012-08:00,2023-02-14T17:43:35.488-08:00,36557,1.291109,1.296136,1.768325,27144.85,72,85,2023-02-21T13:09:37.511-08:00,698706577.6,0,5.970001,99.21353,1,0.55,0
2023-02-21T13:09:40.080-08:00,1677013779,34.06357387,-118.4510276,117.9454,0.5284883,3.084946,-1,-1,2.332022315,17.71033163,-9999,332852.6788,-0.020004272,-0.091598511,-1.19543457,332852.6538,0.310646306,-0.006148305,0.094063059,-0.007331239,-0.082164422,-0.161744624,-0.033658572,-0.015847325,-0.226195455,XArbitraryZVertical,0.04692304,0.004239251,0.15438479,0.986886807,-0.006121086,-0.093924411,-0.995560527,0,0,0,-1,-1,332829.6131,walking,2,2023-02-21T13:09:17.012-08:00,2023-02-14T17:43:35.488-08:00,36557,1.291109,1.296136,1.768325,27144.85,72,85,2023-02-21T13:09:37.511-08:00,698706577.6,0,5.970001,99.21353,1,0.55,0
2023-02-21T13:09:40.115-08:00,1677013779,34.06357387,-118.4510276,117.9454,0.5284883,3.084946,-1,-1,2.332022315,17.71033163,-9999,332852.7138,-0.000320435,0.025924683,-1.075561523,332852.6838,0.305517924,-0.005302069,0.094583333,-0.048087988,0.038850944,-0.158506751,-0.02621579,0.015554428,-0.209577024,XArbitraryZVertical,0.04712632,0.004576226,0.151871027,0.987265513,-0.005278346,-0.094442375,-0.99551636,0,0,0,-1,-1,332829.6131,walking,2,2023-02-21T13:09:17.012-08:00,2023-02-14T17:43:35.488-08:00,36557,1.291109,1.296136,1.768325,27144.85,72,85,2023-02-21T13:09:37.511-08:00,698706577.6,0,5.970001,99.21353,1,0.55,0
2023-02-21T13:09:40.150-08:00,1677013779,34.06357387,-118.4510276,117.9454,0.5284883,3.084946,-1,-1,2.332022315,17.71033163,-9999,332852.7489,-0.037963867,0.065353394,-1.051925659,332852.7439,0.292202128,-0.002426835,0.089016356,-0.02274082,0.091451243,-0.332430065,-0.048714973,0.141801059,-0.061594665,XArbitraryZVertical,0.044195903,0.005278138,0.145384153,0.988373596,-0.002417224,-0.088898845,-0.996037722,0,0,0,-1,-1,332829.6131,walking,2,2023-02-21T13:09:17.012-08:00,2023-02-14T17:43:35.488-08:00,36557,1.291192,1.296136,1.768325,27144.85,72,85,2023-02-21T13:09:40.073-08:00,698706580.1,0,6.09,99.21169,1,0.55,0
2023-02-21T13:09:40.185-08:00,1677013779,34.06357387,-118.4510276,117.9454,0.5284883,3.084946,-1,-1,2.332022315,17.71033163,-9999,332852.7839,0.017791748,0.028320313,-0.976226807,332852.7739,0.282772977,0.002274267,0.089421722,0.011286387,0.140052468,-0.285608262,-0.009024817,0.14751488,-0.040634394,XArbitraryZVertical,0.044089862,0.00742303,0.140825305,0.98902437,0.002265178,-0.089302599,-0.996001959,0,0,0,-1,-1,332829.6131,walking,2,2023-02-21T13:09:17.012-08:00,2023-02-14T17:43:35.488-08:00,36557,1.291192,1.296136,1.768325,27144.85,72,85,2023-02-21T13:09:40.073-08:00,698706580.1,0,6.09,99.21169,1,0.55,0
2023-02-21T13:09:40.220-08:00,1677013779,34.06357387,-118.4510276,117.9454,0.5284883,3.084946,-1,-1,2.332022315,17.71033163,-9999,332852.8189,0.01210022,0.003448486,-0.906829834,332852.8039,0.274465034,0.006988038,0.086283659,-0.208167464,0.123887546,-0.285772443,0.006160579,0.108515501,0.046624839,XArbitraryZVertical,0.042245167,0.009357972,0.136823328,0.989650017,0.006961985,-0.086176634,-0.996255577,0,0,0,-1,-1,332829.6131,walking,2,2023-02-21T13:09:17.012-08:00,2023-02-14T17:43:35.488-08:00,36557,1.291192,1.296136,1.768325,27144.85,72,85,2023-02-21T13:09:40.073-08:00,698706580.1,0,6.09,99.21169,1,0.55,0
2023-02-21T13:09:40.255-08:00,1677013779,34.06357387,-118.4510276,117.9454,0.5284883,3.084946,-1,-1,2.332022315,17.71033163,-9999,332852.854,0.004241943,-0.022171021,-0.861846924,332852.834,0.2653454,0.010905907,0.078928277,-0.221948087,0.077509791,-0.316398591,0.002983247,0.077579863,0.091996551,XArbitraryZVertical,0.038385817,0.010619832,0.132392114,0.990396899,0.010871739,-0.07884635,-0.996827483,0,0,0,-1,-1,332829.6131,walking,2,2023-02-21T13:09:17.012-08:00,2023-02-14T17:43:35.488-08:00,36557,1.291192,1.296136,1.768325,27144.85,72,85,2023-02-21T13:09:40.073-08:00,698706580.1,0,6.09,99.21169,1,0.55,0
2023-02-21T13:09:40.290-08:00,1677013780,34.06356915,-118.4510332,117.829,0.621396,2.781627,-1,-1,3.304493166,17.57522465,-9999,332852.889,0.007385254,-0.053878784,-0.814178467,332852.864,0.255198542,0.013302631,0.074310269,-0.093881205,0.035698362,-0.377823055,-0.00902358,0.052070871,0.135305107,XArbitraryZVertical,0.035997967,0.011319561,0.127407722,0.99113234,0.013265528,-0.074241899,-0.99715203,0,0,0,-1,-1,332829.6131,walking,2,2023-02-21T13:09:17.012-08:00,2023-02-14T17:43:35.488-08:00,36557,1.291192,1.296136,1.768325,27144.85,72,85,2023-02-21T13:09:40.073-08:00,698706580.1,0,6.09,99.21169,1,0.55,0
2023-02-21T13:09:40.325-08:00,1677013780,34.06356915,-118.4510332,117.829,0.621396,2.781627,-1,-1,3.304493166,17.57522465,-9999,332852.924,0.003356934,-0.077407837,-0.822067261,332852.894,0.243612133,0.014939127,0.071663325,-0.070890345,0.017963842,-0.382102311,-0.007301346,0.024818555,0.179344118,XArbitraryZVertical,0.034650578,0.011762068,0.121689312,0.991893507,0.014900228,-0.071602002,-0.997321963,0,0,0,-1,-1,332829.6131,walking,2,2023-02-21T13:09:17.012-08:00,2023-02-14T17:43:35.488-08:00,36557,1.291192,1.296136,1.768325,27144.85,72,85,2023-02-21T13:09:40.073-08:00,698706580.1,0,6.09,99.21169,1,0.55,0
2023-02-21T13:09:40.360-08:00,1677013780,34.06356915,-118.4510332,117.829,0.621396,2.781627,-1,-1,3.304493166,17.57522465,-9999,332852.9591,0.023391724,-0.075698853,-0.843276978,332852.9541,0.225103588,0.015565061,0.068078902,-0.004680222,-0.08859396,-0.256529123,-0.00046795,-0.026074626,0.178180993,XArbitraryZVertical,0.032942946,0.011550995,0.112509041,0.993037226,0.015528378,-0.068026327,-0.997562647,0,0,0,-1,-1,332829.6131,walking,2,2023-02-21T13:09:17.012-08:00,2023-02-14T17:43:35.488-08:00,36557,1.291192,1.296136,1.768325,27144.85,72,85,2023-02-21T13:09:40.073-08:00,698706580.1,0,6.09,99.21169,1,0.55,0
2023-02-21T13:09:40.395-08:00,1677013780,34.06356915,-118.4510332,117.829,0.621396,2.781627,-1,-1,3.304493166,17.57522465,-9999,332852.9941,-0.019760132,-0.11416626,-0.883682251,332852.9841,0.218203446,0.012316577,0.067800524,-0.042633623,-0.160239458,-0.200756118,-0.006138671,-0.025406331,0.133811474,XArbitraryZVertical,0.033021453,0.009808586,0.10902828,0.993441501,0.012287968,-0.067748591,-0.997626722,0,0,0,-1,-1,332829.6131,walking,2,2023-02-21T13:09:17.012-08:00,2023-02-14T17:43:35.488-08:00,36557,1.291192,1.296136,1.768325,27144.85,72,85,2023-02-21T13:09:40.073-08:00,698706580.1,0,6.09,99.21169,1,0.55,0
2023-02-21T13:09:40.430-08:00,1677013780,34.06356915,-118.4510332,117.829,0.621396,2.781627,-1,-1,3.304493166,17.57522465,-9999,332853.0291,-0.015853882,-0.082458496,-0.936599731,332853.0141,0.213515032,0.00778892,0.065323153,-0.073918365,-0.147912353,-0.117812023,-0.042440191,-0.044433996,0.096485019,XArbitraryZVertical,0.032054858,0.007349818,0.10662366,0.993755402,0.007772229,-0.065276705,-0.997836947,0,0,0,-1,-1,332829.6131,walking,2,2023-02-21T13:09:17.012-08:00,2023-02-14T17:43:35.488-08:00,36557,1.291192,1.296136,1.768325,27144.85,72,85,2023-02-21T13:09:40.073-08:00,698706580.1,0,6.09,99.21169,1,0.55,0
2023-02-21T13:09:40.465-08:00,1677013780,34.06356915,-118.4510332,117.829,0.621396,2.781627,-1,-1,3.304493166,17.57522465,-9999,332853.0642,-0.000350952,-0.097381592,-0.98059082,332853.0441,0.211018869,0.003565992,0.065546176,0.091960996,-0.150527626,-0.063308671,-0.013766451,-0.017569602,0.05965966,XArbitraryZVertical,0.032397282,0.005222963,0.105315171,0.993897233,0.003558327,-0.065499254,-0.997846246,0,0,0,-1,-1,332829.6131,walking,2,2023-02-21T13:09:17.012-08:00,2023-02-14T17:43:35.488-08:00,36557,1.291192,1.296136,1.768325,27144.85,72,85,2023-02-21T13:09:40.073-08:00,698706580.1,0,6.09,99.21169,1,0.55,0
2023-02-21T13:09:40.500-08:00,1677013780,34.06356915,-118.4510332,117.829,0.621396,2.781627,-1,-1,3.304493166,17.57522465,-9999,332853.0992,0.033065796,-0.078186035,-1.072463989,332853.0742,0.20857921,-0.000723804,0.067903384,0.047093652,-0.139651358,-0.082217351,0.00037119,-0.029530384,0.017104387,XArbitraryZVertical,0.033798388,0.003173986,0.104028444,0.993994785,-0.000722136,-0.067851216,-0.997695208,0,0,0,-1,-1,332829.6131,walking,2,2023-02-21T13:09:17.012-08:00,2023-02-14T17:43:35.488-08:00,36557,1.291192,1.296136,1.768325,27144.85,72,85,2023-02-21T13:09:40.073-08:00,698706580.1,0,6.09,99.21169,1,0.55,0
2023-02-21T13:09:40.535-08:00,1677013780,34.06356915,-118.4510332,117.829,0.621396,2.781627,-1,-1,3.304493166,17.57522465,-9999,332853.1342,-0.028533936,-0.089080811,-1.066223145,332853.1042,0.207302764,-0.005389147,0.069026027,-0.001119735,-0.152937531,-0.018832812,0.034627393,-0.013410985,-0.068969905,XArbitraryZVertical,0.034599472,0.000891685,0.103311409,0.994046726,-0.005376288,-0.068971224,-0.997604191,0,0,0,-1,-1,332829.6131,walking,2,2023-02-21T13:09:17.012-08:00,2023-02-14T17:43:35.488-08:00,36557,1.291192,1.296136,1.768325,27144.85,72,85,2023-02-21T13:09:40.073-08:00,698706580.1,0,6.09,99.21169,1,0.55,0
2023-02-21T13:09:40.570-08:00,1677013780,34.06356915,-118.4510332,117.829,0.621396,2.781627,-1,-1,3.304493166,17.57522465,-9999,332853.1693,0.055557251,-0.141921997,-1.137832642,332853.1642,0.208540651,-0.008216252,0.071376216,-0.05957479,0.088032141,0.166070893,0.028123226,-0.025074154,-0.125291049,XArbitraryZVertical,0.035913752,-0.000369549,0.103868552,0.993942321,-0.008195239,-0.071315624,-0.997420132,0,0,0,-1,-1,332829.6131,walking,2,2023-02-21T13:09:17.012-08:00,2023-02-14T17:43:35.488-08:00,36557,1.291192,1.296136,1.768325,27144.85,72,85,2023-02-21T13:09:40.073-08:00,698706580.1,0,6.09,99.21169,1,0.55,0
2023-02-21T13:09:40.607-08:00,1677013780,34.06356915,-118.4510332,117.829,0.621396,2.781627,-1,-1,3.304493166,17.57522465,-9999,332853.2043,0.128692627,-0.035400391,-1.201156616,332853.1943,0.216732206,-0.00519277,0.065343699,-0.274691939,0.111796185,0.340245008,0.068368316,-0.078974649,-0.175823092,XArbitraryZVertical,0.032754976,0.000953181,0.108011743,0.993609318,-0.005181665,-0.065297209,-0.997852385,0,0,0,-1,-1,332829.6131,walking,2,2023-02-21T13:09:17.012-08:00,2023-02-14T17:43:35.488-08:00,36557,1.291192,1.296136,1.768325,27144.85,72,85,2023-02-21T13:09:40.073-08:00,698706580.1,0,6.09,99.21169,1,0.55,0
2023-02-21T13:09:40.640-08:00,1677013780,34.06356915,-118.4510332,117.829,0.621396,2.781627,-1,-1,3.304493166,17.57522465,-9999,332853.2393,0.086166382,-0.006698608,-1.166702271,332853.2243,0.228800715,-0.003316374,0.058663919,-0.263838172,0.020758027,0.470850497,0.140273556,0.019430436,-0.193910182,XArbitraryZVertical,0.029325211,0.001701148,0.114053408,0.993040315,-0.003310663,-0.058630276,-0.998274267,0,0,0,-1,-1,332829.6131,walking,2,2023-02-21T13:09:17.012-08:00,2023-02-14T17:43:35.488-08:00,36557,1.291192,1.296136,1.768325,27144.85,72,85,2023-02-21T13:09:40.073-08:00,698706580.1,0,6.09,99.21169,1,0.55,0
2023-02-21T13:09:40.675-08:00,1677013780,34.06356915,-118.4510332,117.829,0.621396,2.781627,-1,-1,3.304493166,17.57522465,-9999,332853.2743,0.108047485,0.060806274,-1.156845093,332853.2543,0.243801526,-0.004715604,0.047771349,-0.388950944,-0.024850469,0.515562057,0.081278816,0.062172726,-0.162620425,XArbitraryZVertical,0.023992731,0.000564556,0.121508167,0.992300238,-0.004710207,-0.047753181,-0.998848081,0,0,0,-1,-1,332829.6131,walking,2,2023-02-21T13:09:17.012-08:00,2023-02-14T17:43:35.488-08:00,36557,1.291192,1.296136,1.768325,27144.85,72,85,2023-02-21T13:09:40.073-08:00,698706580.1,0,6.09,99.21169,1,0.55,0
2023-02-21T13:09:40.710-08:00,1677013780,34.06356915,-118.4510332,117.829,0.621396,2.781627,-1,-1,3.304493166,17.57522465,-9999,332853.3094,0.142593384,0.099472046,-1.071273804,332853.2844,0.260430517,-0.006584706,0.034604865,-0.502106965,-0.085090771,0.597923398,0.114628211,0.095404223,-0.157465398,XArbitraryZVertical,0.017582441,-0.00101743,0.129770968,0.991387524,-0.006580716,-0.034597959,-0.999379635,0,0,0,-1,-1,332829.6131,walking,2,2023-02-21T13:09:17.012-08:00,2023-02-14T17:43:35.488-08:00,36557,1.291192,1.296136,1.768325,27144.85,72,85,2023-02-21T13:09:40.073-08:00,698706580.1,0,6.09,99.21169,1,0.55,0
2023-02-21T13:09:40.745-08:00,1677013780,34.06356915,-118.4510332,117.829,0.621396,2.781627,-1,-1,3.304493166,17.57522465,-9999,332853.3444,0.054016113,0.045028687,-0.985778809,332853.3144,0.278322904,-0.011378694,0.016376016,-0.667197585,-0.227723151,0.603529572,0.154687479,0.109530181,-0.093491018,XArbitraryZVertical,0.008897785,-0.004498377,0.138659704,0.990289821,-0.011376923,-0.016375285,-0.999801159,0,0,0,-1,-1,332829.6131,walking,2,2023-02-21T13:09:17.012-08:00,2023-02-14T17:43:35.488-08:00,36557,1.291192,1.296136,1.768325,27144.85,72,85,2023-02-21T13:09:40.073-08:00,698706580.1,0,6.09,99.21169,1,0.55,0
2023-02-21T13:09:40.780-08:00,1677013780,34.06356915,-118.4510332,117.829,0.621396,2.781627,-1,-1,3.304493166,17.57522465,-9999,332853.3794,0.003845215,-0.075622559,-0.835876465,332853.3744,0.31124791,-0.028140348,-0.019411541,-0.631081641,-0.28877905,0.522108912,0.045251701,-0.055039611,0.1047014,XArbitraryZVertical,-0.007406723,-0.015403211,0.155108807,0.987749532,-0.028131334,0.019410321,-0.999415755,0,0,0,-1,-1,332829.6131,walking,2,2023-02-21T13:09:17.012-08:00,2023-02-14T17:43:35.488-08:00,36557,1.291192,1.296136,1.768325,27144.85,72,85,2023-02-21T13:09:40.073-08:00,698706580.1,0,6.09,99.21169,1,0.55,0
2023-02-21T13:09:40.815-08:00,1677013780,34.06356915,-118.4510332,117.829,0.621396,2.781627,-1,-1,3.304493166,17.57522465,-9999,332853.4145,-0.074493408,-0.051345825,-0.780273438,332853.4045,0.325541549,-0.036751646,-0.04136529,-0.704789519,-0.294120014,0.475895196,0.0234368,-0.08732824,0.188808024,XArbitraryZVertical,-0.01742731,-0.021478913,0.162365952,0.98634286,-0.036711942,0.041353494,-0.998469889,0,0,0,-1,-1,332829.6131,walking,2,2023-02-21T13:09:17.012-08:00,2023-02-14T17:43:35.488-08:00,36557,1.291192,1.296136,1.768325,27144.85,72,85,2023-02-21T13:09:40.073-08:00,698706580.1,0,6.09,99.21169,1,0.55,0
2023-02-21T13:09:40.850-08:00,1677013780,34.06356915,-118.4510332,117.829,0.621396,2.781627,-1,-1,3.304493166,17.57522465,-9999,332853.4495,-0.122573853,-0.027603149,-0.770217896,332853.4345,0.337746558,-0.043727594,-0.058795489,-0.378505647,-0.2163966,0.382903934,-0.041338064,-0.093734786,0.223819256,XArbitraryZVertical,-0.025295649,-0.02648079,0.168592456,0.985005288,-0.043638125,0.058761619,-0.997317791,0,0,0,-1,-1,332829.6131,walking,2,2023-02-21T13:09:17.012-08:00,2023-02-14T17:43:35.488-08:00,36557,1.291192,1.296136,1.768325,27144.85,72,85,2023-02-21T13:09:40.073-08:00,698706580.1,0,6.09,99.21169,1,0.55,0
2023-02-21T13:09:40.886-08:00,1677013780,34.06356915,-118.4510332,117.829,0.621396,2.781627,-1,-1,3.304493166,17.57522465,-9999,332853.4845,-0.100204468,-0.043762207,-0.791412354,332853.4645,0.347587931,-0.047862631,-0.065438899,-0.129584283,-0.112781525,0.271169811,-0.081927225,-0.120766371,0.225568235,XArbitraryZVertical,-0.028075978,-0.029211176,0.173549368,0.9839914,-0.047741953,0.065392204,-0.996716917,0,0,0,-1,-1,332829.6131,walking,2,2023-02-21T13:09:17.012-08:00,2023-02-14T17:43:35.488-08:00,36557,1.291192,1.296136,1.768325,27144.85,72,85,2023-02-21T13:09:40.073-08:00,698706580.1,0,6.09,99.21169,1,0.55,0
2023-02-21T13:09:40.921-08:00,1677013780,34.06356915,-118.4510332,117.829,0.621396,2.781627,-1,-1,3.304493166,17.57522465,-9999,332853.5196,-0.111709595,-0.010345459,-0.877456665,332853.4945,0.354301489,-0.051114957,-0.071320515,-0.189681232,-0.137296185,0.216398716,-0.049241647,-0.115022294,0.20474267,XArbitraryZVertical,-0.030582739,-0.031419637,0.17695292,0.983242126,-0.050962813,0.071260065,-0.996155024,0,0,0,-1,-1,332829.6131,walking,2,2023-02-21T13:09:17.012-08:00,2023-02-14T17:43:35.488-08:00,36557,1.291192,1.296136,1.768325,27144.85,72,85,2023-02-21T13:09:40.073-08:00,698706580.1,0,6.09,99.21169,1,0.55,0
2023-02-21T13:09:40.956-08:00,1677013780,34.06356915,-118.4510332,117.829,0.621396,2.781627,-1,-1,3.304493166,17.57522465,-9999,332853.5546,-0.112335205,-0.047851563,-0.912887573,332853.5246,0.359623313,-0.054839126,-0.076172344,-0.115543306,-0.138262391,0.138398454,-0.057819821,-0.090411462,0.127330482,XArbitraryZVertical,-0.032549323,-0.033761836,0.179674496,0.982607585,-0.054652706,0.076098703,-0.995601356,0,0,0,-1,-1,332829.6131,walking,2,2023-02-21T13:09:17.012-08:00,2023-02-14T17:43:35.488-08:00,36557,1.291192,1.296136,1.768325,27144.85,72,85,2023-02-21T13:09:40.073-08:00,698706580.1,0,6.09,99.21169,1,0.55,0
2023-02-21T13:09:40.991-08:00,1677013780,34.06356915,-118.4510332,117.829,0.621396,2.781627,-1,-1,3.304493166,17.57522465,-9999,332853.5896,-0.125518799,0.022460938,-1.009643555,332853.5846,0.365297127,-0.066015557,-0.080946213,-0.008686095,-0.252036095,0.040973634,-0.063230909,-0.142747521,0.03927809,XArbitraryZVertical,-0.033777981,-0.039771572,0.182700228,0.981782981,-0.065751612,0.080857843,-0.99455452,0,0,0,-1,-1,332829.6131,walking,2,2023-02-21T13:09:17.012-08:00,2023-02-14T17:43:35.488-08:00,36557,1.291192,1.296136,1.768325,27144.85,72,85,2023-02-21T13:09:40.073-08:00,698706580.1,0,6.09,99.21169,1,0.55,0
