loggingTime(txt),locationTimestamp_since1970(s),locationLatitude(WGS84),locationLongitude(WGS84),locationAltitude(m),locationSpeed(m/s),locationSpeedAccuracy(m/s),locationCourse(°),locationCourseAccuracy(°),locationVerticalAccuracy(m),locationHorizontalAccuracy(m),locationFloor(Z),accelerometerTimestamp_sinceReboot(s),accelerometerAccelerationX(G),accelerometerAccelerationY(G),accelerometerAccelerationZ(G),motionTimestamp_sinceReboot(s),motionYaw(rad),motionRoll(rad),motionPitch(rad),motionRotationRateX(rad/s),motionRotationRateY(rad/s),motionRotationRateZ(rad/s),motionUserAccelerationX(G),motionUserAccelerationY(G),motionUserAccelerationZ(G),motionAttitudeReferenceFrame(txt),motionQuaternionX(R),motionQuaternionY(R),motionQuaternionZ(R),motionQuaternionW(R),motionGravityX(G),motionGravityY(G),motionGravityZ(G),motionMagneticFieldX(µT),motionMagneticFieldY(µT),motionMagneticFieldZ(µT),motionHeading(°),motionMagneticFieldCalibrationAccuracy(Z),activityTimestamp_sinceReboot(s),activity(txt),activityActivityConfidence(Z),activityActivityStartDate(txt),pedometerStartDate(txt),pedometerNumberofSteps(N),pedometerAverageActivePace(s/m),pedometerCurrentPace(s/m),pedometerCurrentCadence(steps/s),pedometerDistance(m),pedometerFloorAscended(N),pedometerFloorDescended(N),pedometerEndDate(txt),altimeterTimestamp_sinceReboot(s),altimeterReset(bool),altimeterRelativeAltitude(m),altimeterPressure(kPa),batteryState(N),batteryLevel(R),label
2023-02-21T15:37:16.276-08:00,1677022636,34.06429551,-118.4499048,118.939,1.16,0.71,327.9424438,36.63766405,6,14.28075724,-9999,339643.1352,0.052841187,0.251922607,-1.22567749,339643.1051,-0.107686367,-0.043606771,-0.077522042,-0.080566943,-0.061596375,0.348926127,0.043645144,0.038629174,-0.332777977,XArbitraryZVertical,-0.039858387,-0.019668722,-0.052920353,0.997608987,-0.043462027,0.077444419,-0.996048927,0,0,0,-1,-1,339639.0919,unknown,2,2023-02-21T15:37:12.232-08:00,2023-02-14T17:43:35.488-08:00,40898,1.273659,0.6287907,2.064428,30353.41,78,100,2023-02-21T15:37:14.794-08:00,698715434.9,0,-1.16,99.33019,1,0.51,0
2023-02-21T15:37:16.311-08:00,1677022636,34.06429551,-118.4499048,118.939,1.16,0.71,327.9424438,36.63766405,6,14.28075724,-9999,339643.1702,0.044433594,0.235351563,-1.14302063,339643.1652,-0.097141859,-0.045970279,-0.107470871,-0.771850288,-0.217926532,-0.067625202,0.125873908,0.125234038,-0.248457968,XArbitraryZVertical,-0.054746329,-0.020315867,-0.047235991,0.997175442,-0.045688961,0.107264109,-0.993180215,0,0,0,-1,-1,339639.0919,unknown,2,2023-02-21T15:37:12.232-08:00,2023-02-14T17:43:35.488-08:00,40898,1.273659,0.6287907,2.064428,30353.41,78,100,2023-02-21T15:37:14.794-08:00,698715434.9,0,-1.16,99.33019,1,0.51,0
2023-02-21T15:37:16.347-08:00,1677022636,34.06429551,-118.4499048,118.939,1.16,0.71,327.9424438,36.63766405,6,14.28075724,-9999,339643.2052,-0.049438477,0.193695068,-1.064605713,339643.1952,-0.102701253,-0.052537067,-0.121861739,-0.121335842,-0.150982574,-0.193612739,-0.029266898,0.095877379,-0.102062464,XArbitraryZVertical,-0.062137585,-0.023057764,-0.049617855,0.996566757,-0.052123468,0.12156035,-0.991214514,0,0,0,-1,-1,339639.0919,unknown,2,2023-02-21T15:37:12.232-08:00,2023-02-14T17:43:35.488-08:00,40898,1.273659,0.6287907,2.064428,30353.41,78,100,2023-02-21T15:37:14.794-08:00,698715434.9,0,-1.16,99.33019,1,0.51,0
2023-02-21T15:37:16.381-08:00,1677022636,34.06429551,-118.4499048,118.939,1.16,0.71,327.9424438,36.63766405,6,14.28075724,-9999,339643.2402,-0.067138672,0.257537842,-1.017349243,339643.2252,-0.10863344,-0.05710318,-0.120777025,0.120465018,-0.066177145,-0.17898944,-0.014327474,0.130401373,-0.062766254,XArbitraryZVertical,-0.061785281,-0.025178483,-0.052448604,0.996392333,-0.056656398,0.120483607,-0.991097271,0,0,0,-1,-1,339639.0919,unknown,2,2023-02-21T15:37:12.232-08:00,2023-02-14T17:43:35.488-08:00,40898,1.273659,0.6287907,2.064428,30353.41,78,100,2023-02-21T15:37:14.794-08:00,698715434.9,0,-1.16,99.33019,1,0.51,0
2023-02-21T15:37:16.416-08:00,1677022636,34.06429551,-118.4499048,118.939,1.16,0.71,327.9424438,36.63766405,6,14.28075724,-9999,339643.2753,-0.028701782,0.189407349,-0.883728027,339643.2553,-0.113565273,-0.058387217,-0.118951136,-0.060251653,-0.022707034,-0.171528667,0.014850892,0.110348329,0.003799617,XArbitraryZVertical,-0.060973056,-0.025718951,-0.0548954,0.996296827,-0.057941698,0.118670821,-0.991241634,0,0,0,-1,-1,339639.0919,unknown,2,2023-02-21T15:37:12.232-08:00,2023-02-14T17:43:35.488-08:00,40898,1.273659,0.6287907,2.064428,30353.41,78,100,2023-02-21T15:37:14.794-08:00,698715434.9,0,-1.16,99.33019,1,0.51,0
2023-02-21T15:37:16.451-08:00,1677022636,34.06429551,-118.4499048,118.939,1.16,0.71,327.9424438,36.63766405,6,14.28075724,-9999,339643.3103,-0.05847168,0.138595581,-0.940460205,339643.2853,-0.118292015,-0.059049896,-0.121500136,-0.060442284,-0.002297233,-0.138569713,0.02987875,0.068205908,0.107169807,XArbitraryZVertical,-0.062321927,-0.02582742,-0.057187628,0.996081504,-0.058580518,0.121201418,-0.990897834,0,0,0,-1,-1,339639.0919,unknown,2,2023-02-21T15:37:12.232-08:00,2023-02-14T17:43:35.488-08:00,40898,1.273659,0.6287907,2.064428,30353.41,78,100,2023-02-21T15:37:14.794-08:00,698715434.9,0,-1.16,99.33019,1,0.51,0
2023-02-21T15:37:16.486-08:00,1677022636,34.06429551,-118.4499048,118.939,1.16,0.71,327.9424438,36.63766405,6,14.28075724,-9999,339643.3453,-0.05406189,0.186080933,-0.849624634,339643.3153,-0.121695528,-0.060001952,-0.124812317,-0.254725575,-0.046161361,-0.086187996,0.006902449,0.036979966,0.046419978,XArbitraryZVertical,-0.064042775,-0.026091917,-0.058797253,0.99587173,-0.059499484,0.12448851,-0.990435481,0,0,0,-1,-1,339639.0919,unknown,2,2023-02-21T15:37:12.232-08:00,2023-02-14T17:43:35.488-08:00,40898,1.273659,0.6287907,2.064428,30353.41,78,100,2023-02-21T15:37:14.794-08:00,698715434.9,0,-1.16,99.33019,1,0.51,0
2023-02-21T15:37:16.521-08:00,1677022636,34.06429551,-118.4499048,118.939,1.16,0.71,327.9424438,36.63766405,6,14.28075724,-9999,339643.3804,-0.101577759,0.104049683,-0.806869507,339643.3754,-0.131356616,-0.066629575,-0.138143628,-0.024721092,-0.112998977,-0.222718686,-0.04757937,-0.038385242,0.1935063,XArbitraryZVertical,-0.071010758,-0.028630416,-0.06314437,0.995063065,-0.065945998,0.13770467,-0.988275528,0,0,0,-1,-1,339639.0919,unknown,2,2023-02-21T15:37:12.232-08:00,2023-02-14T17:43:35.488-08:00,40898,1.273659,0.6287907,2.064428,30353.41,78,100,2023-02-21T15:37:14.794-08:00,698715434.9,0,-1.16,99.33019,1,0.51,0
2023-02-21T15:37:16.556-08:00,1677022636,34.06429551,-118.4499048,118.939,1.16,0.71,327.9424438,36.63766405,6,14.28075724,-9999,339643.4154,-0.086105347,0.047592163,-0.824584961,339643.4054,-0.139225998,-0.071073377,-0.138491161,-0.123877294,-0.120612621,-0.291835725,-0.010309055,-0.069582716,0.163095832,XArbitraryZVertical,-0.071444477,-0.030548605,-0.066893967,0.99472989,-0.07033363,0.138048872,-0.987924933,0,0,0,-1,-1,339639.0919,unknown,2,2023-02-21T15:37:12.232-08:00,2023-02-14T17:43:35.488-08:00,40898,1.273659,0.6287907,2.064428,30353.41,78,100,2023-02-21T15:37:14.794-08:00,698715434.9,0,-1.16,99.33019,1,0.51,0
2023-02-21T15:37:16.591-08:00,1677022636,34.06429551,-118.4499048,118.939,1.16,0.71,327.9424438,36.63766405,6,14.28075724,-9999,339643.4504,-0.112625122,0.153076172,-0.843139648,339643.4354,-0.14962787,-0.076920167,-0.143735629,-0.12377651,-0.182448223,-0.333368808,-0.008039258,-0.063468292,0.146917701,XArbitraryZVertical,-0.074418693,-0.032880961,-0.071742832,0.99409941,-0.076051906,0.143241212,-0.986761391,0,0,0,-1,-1,339639.0919,unknown,2,2023-02-21T15:37:12.232-08:00,2023-02-14T17:43:35.488-08:00,40898,1.273659,0.6287907,2.064428,30353.41,78,100,2023-02-21T15:37:14.794-08:00,698715434.9,0,-1.16,99.33019,1,0.51,0
2023-02-21T15:37:16.626-08:00,1677022636,34.06429551,-118.4499048,118.939,1.16,0.71,327.9424438,36.63766405,6,14.28075724,-9999,339643.4854,-0.092010498,0.017578125,-0.881820679,339643.4654,-0.159227046,-0.084070709,-0.139368435,0.308384955,-0.193491101,-0.315948814,-0.038317688,0.001157969,0.144399107,XArbitraryZVertical,-0.072679931,-0.036255632,-0.076349649,0.993767527,-0.083157517,0.138917699,-0.986806333,0,0,0,-1,-1,339639.0919,unknown,2,2023-02-21T15:37:12.232-08:00,2023-02-14T17:43:35.488-08:00,40898,1.273659,0.6287907,2.064428,30353.41,78,100,2023-02-21T15:37:14.794-08:00,698715434.9,0,-1.16,99.33019,1,0.51,0
2023-02-21T15:37:16.661-08:00,1677022636,34.06429551,-118.4499048,118.939,1.16,0.71,327.9424438,36.63766405,6,14.28075724,-9999,339643.5205,-0.108642578,-0.021682739,-0.901306152,339643.4955,-0.166650547,-0.090962941,-0.128936731,0.156389147,-0.222597316,-0.245021224,-0.001926959,-0.111001655,0.105778515,XArbitraryZVertical,-0.067910011,-0.039857555,-0.080051184,0.993675743,-0.090083525,0.128579766,-0.987599194,0,0,0,-1,-1,339639.0919,unknown,2,2023-02-21T15:37:12.232-08:00,2023-02-14T17:43:35.488-08:00,40898,1.273659,0.6287907,2.064428,30353.41,78,100,2023-02-21T15:37:14.794-08:00,698715434.9,0,-1.16,99.33019,1,0.51,0
2023-02-21T15:37:16.696-08:00,1677022636,34.06429551,-118.4499048,118.939,1.16,0.71,327.9424438,36.63766405,6,14.28075724,-9999,339643.5555,-0.124282837,0.17880249,-0.960159302,339643.5255,-0.173738997,-0.099334377,-0.136206005,-0.580973685,-0.255090803,-0.191986769,-0.000425957,-0.181805775,0.084716082,XArbitraryZVertical,-0.072007553,-0.043448124,-0.083086682,0.992987254,-0.098252602,0.135785252,-0.985854328,0,0,0,-1,-1,339639.0919,unknown,2,2023-02-21T15:37:12.232-08:00,2023-02-14T17:43:35.488-08:00,40898,1.273659,0.6287907,2.064428,30353.41,78,100,2023-02-21T15:37:14.794-08:00,698715434.9,0,-1.16,99.33019,1,0.51,0
2023-02-21T15:37:16.731-08:00,1677022636,34.06429551,-118.4499048,118.939,1.16,0.71,327.9424438,36.63766405,6,14.28075724,-9999,339643.5905,-0.001968384,0.080383301,-1.205062866,339643.5855,-0.179533067,-0.112531861,-0.161136746,-0.20191063,-0.165041804,0.148965329,0.031921364,0.021444395,-0.125673354,XArbitraryZVertical,-0.085055355,-0.048624731,-0.084706086,0.991577499,-0.110839792,0.160440326,-0.980802417,0,0,0,-1,-1,339639.0919,unknown,2,2023-02-21T15:37:12.232-08:00,2023-02-14T17:43:35.488-08:00,40898,1.273659,0.6287907,2.064428,30353.41,78,100,2023-02-21T15:37:14.794-08:00,698715434.9,0,-1.16,99.33019,1,0.51,0
2023-02-21T15:37:16.767-08:00,1677022636,34.06429551,-118.4499048,118.939,1.16,0.71,327.9424438,36.63766405,6,14.28075724,-9999,339643.6256,-0.00668335,0.137878418,-0.973007202,339643.6156,-0.174470181,-0.116139583,-0.180030089,-1.357066393,-0.119800493,0.291904062,0.191581577,-0.171155155,-0.046654165,XArbitraryZVertical,-0.094436746,-0.049763667,-0.081428169,0.990946387,-0.114005871,0.179059178,-0.977210581,0,0,0,-1,-1,339639.0919,unknown,2,2023-02-21T15:37:12.232-08:00,2023-02-14T17:43:35.488-08:00,40898,1.273659,0.6287907,2.064428,30353.41,78,100,2023-02-21T15:37:14.794-08:00,698715434.9,0,-1.16,99.33019,1,0.51,0
2023-02-21T15:37:16.801-08:00,1677022636,34.06429551,-118.4499048,118.939,1.16,0.71,327.9424438,36.63766405,6,14.28075724,-9999,339643.6606,0.004486084,0.32875061,-1.147613525,339643.6456,-0.165719299,-0.116427566,-0.225809335,-1.169653535,0.008856887,0.65765202,0.081126444,0.104489148,-0.08459723,XArbitraryZVertical,-0.116872885,-0.048303227,-0.075566139,0.989089134,-0.113215663,0.223895222,-0.968015075,0,0,0,-1,-1,339639.0919,unknown,2,2023-02-21T15:37:12.232-08:00,2023-02-14T17:43:35.488-08:00,40898,1.273659,0.6287907,2.064428,30353.41,78,100,2023-02-21T15:37:14.794-08:00,698715434.9,0,-1.16,99.33019,1,0.51,0
2023-02-21T15:37:16.837-08:00,1677022636,34.06429551,-118.4499048,118.939,1.16,0.71,327.9424438,36.63766405,6,14.28075724,-9999,339643.6956,-0.00680542,0.343048096,-1.094406128,339643.6756,-0.144080867,-0.109933874,-0.257340996,-1.095861316,0.086711004,0.882790864,0.091207199,0.016531825,-0.17492187,XArbitraryZVertical,-0.131711367,-0.045121798,-0.064244024,0.988174483,-0.106099755,0.254510015,-0.961232305,0,0,0,-1,-1,339639.0919,unknown,2,2023-02-21T15:37:12.232-08:00,2023-02-14T17:43:35.488-08:00,40898,1.273659,0.6287907,2.064428,30353.41,78,100,2023-02-21T15:37:14.794-08:00,698715434.9,0,-1.16,99.33019,1,0.51,0
2023-02-21T15:37:16.872-08:00,1677022636,34.06429551,-118.4499048,118.939,1.16,0.71,327.9424438,36.63766405,6,14.28075724,-9999,339643.7306,0.039321899,0.540908813,-1.052902222,339643.7056,-0.123758496,-0.100860904,-0.306160676,-2.031219244,0.117370643,0.749967456,0.089202277,0.041647971,-0.145754158,XArbitraryZVertical,-0.155078684,-0.040306714,-0.053367093,0.985635734,-0.096007675,0.301400065,-0.948651969,0,0,0,-1,-1,339639.0919,unknown,2,2023-02-21T15:37:12.232-08:00,2023-02-14T17:43:35.488-08:00,40898,1.273659,0.6287907,2.064428,30353.41,78,100,2023-02-21T15:37:14.794-08:00,698715434.9,0,-1.16,99.33019,1,0.51,0
2023-02-21T15:37:16.908-08:00,1677022636,34.06429551,-118.4499048,118.939,1.16,0.71,327.9424438,36.63766405,6,14.28075724,-9999,339643.7657,-0.066436768,0.451950073,-1.003250122,339643.7357,-0.108531623,-0.095707136,-0.359226908,-0.878113449,-0.116851702,0.514516711,0.120848671,0.101116598,-0.094757318,XArbitraryZVertical,-0.18073488,-0.037317792,-0.044772372,0.981803305,-0.089461319,0.351550579,-0.931884587,0,0,0,-1,-1,339639.0919,unknown,2,2023-02-21T15:37:12.232-08:00,2023-02-14T17:43:35.488-08:00,40898,1.273659,0.6287907,2.064428,30353.41,78,100,2023-02-21T15:37:14.794-08:00,698715434.9,0,-1.16,99.33019,1,0.51,0
2023-02-21T15:37:16.941-08:00,1677022636,34.06429551,-118.4499048,118.939,1.16,0.71,327.9424438,36.63766405,6,14.28075724,-9999,339643.8007,0.019317627,0.216537476,-0.916656494,339643.7957,-0.085681598,-0.09110572,-0.360545732,-0.088305555,-0.151355758,0.322407007,0.11146684,0.007902265,-0.094924808,XArbitraryZVertical,-0.180866345,-0.037087111,-0.033932736,0.98222216,-0.085130148,0.352784932,-0.93182385,0,0,0,-1,-1,339639.0919,unknown,2,2023-02-21T15:37:12.232-08:00,2023-02-14T17:43:35.488-08:00,40898,1.273659,0.6287907,2.064428,30353.41,78,100,2023-02-21T15:37:14.794-08:00,698715434.9,0,-1.16,99.33019,1,0.51,0
2023-02-21T15:37:16.977-08:00,1677022636,34.06429551,-118.4499048,118.939,1.16,0.71,327.9424438,36.63766405,6,14.28075724,-9999,339643.8357,-0.026107788,0.402908325,-0.849777222,339643.8257,-0.07451914,-0.092856614,-0.366122157,0.164964408,-0.186400831,0.440108061,0.087493323,0.049854815,0.063916385,XArbitraryZVertical,-0.183417986,-0.0388306,-0.028146131,0.981864356,-0.086577781,0.357997298,-0.929700077,0,0,0,-1,-1,339639.0919,unknown,2,2023-02-21T15:37:12.232-08:00,2023-02-14T17:43:35.488-08:00,40898,1.273659,0.6287907,2.064428,30353.41,78,100,2023-02-21T15:37:14.794-08:00,698715434.9,0,-1.16,99.33019,1,0.51,0
2023-02-21T15:37:17.012-08:00,1677022636,34.06429551,-118.4499048,118.939,1.16,0.71,327.9424438,36.63766405,6,14.28075724,-9999,339643.8708,-0.095748901,0.279083252,-0.797943115,339643.8558,-0.060552095,-0.092586308,-0.358264186,0.250736415,-0.13918817,0.350498885,0.067174725,-0.00309974,0.101807296,XArbitraryZVertical,-0.179281616,-0.040127416,-0.021513541,0.982743613,-0.08658389,0.350649148,-0.932495773,0,0,0,-1,-1,339639.0919,unknown,2,2023-02-21T15:37:12.232-08:00,2023-02-14T17:43:35.488-08:00,40898,1.273659,0.6287907,2.064428,30353.41,78,100,2023-02-21T15:37:14.794-08:00,698715434.9,0,-1.16,99.33019,1,0.51,0
2023-02-21T15:37:17.047-08:00,1677022636,34.06429551,-118.4499048,118.939,1.16,0.71,327.9424438,36.63766405,6,14.28075724,-9999,339643.9058,-0.085830688,0.212417603,-0.888259888,339643.8858,-0.05017217,-0.092306696,-0.359327365,-0.250148088,-0.073343977,0.312073886,-0.038070381,-0.093725383,0.138462305,XArbitraryZVertical,-0.179590872,-0.040902447,-0.016411406,0.98275365,-0.086288735,0.351644635,-0.932148218,0,0,0,-1,-1,339639.0919,unknown,2,2023-02-21T15:37:12.232-08:00,2023-02-14T17:43:35.488-08:00,40898,1.273659,0.6287907,2.064428,30353.41,78,100,2023-02-21T15:37:14.794-08:00,698715434.9,0,-1.16,99.33019,1,0.51,0
2023-02-21T15:37:17.082-08:00,1677022637,34.06431412,-118.4499221,118.2092,1.12,0.76,327.9424438,40.1267569,6,14.26776723,-9999,339643.9408,-0.097427368,0.234802246,-0.754852295,339643.9158,-0.040679346,-0.091709457,-0.369119682,-0.086783186,-0.133133948,0.328503013,-0.000418119,-0.148377001,0.04046613,XArbitraryZVertical,-0.18419951,-0.041322439,-0.011561562,0.98195172,-0.085412547,0.360794544,-0.928726017,0,0,0,-1,-1,339639.0919,unknown,2,2023-02-21T15:37:12.232-08:00,2023-02-14T17:43:35.488-08:00,40898,1.273659,0.6287907,2.064428,30353.41,78,100,2023-02-21T15:37:14.794-08:00,698715434.9,0,-1.16,99.33019,1,0.51,0
2023-02-21T15:37:17.117-08:00,1677022637,34.06431412,-118.4499221,118.2092,1.12,0.76,327.9424438,40.1267569,6,14.26776723,-9999,339643.9759,-0.173400879,0.155319214,-0.802429199,339643.9458,-0.029874645,-0.092988584,-0.366138666,0.113410786,-0.188429028,0.270952672,-0.002701305,-0.105205148,0.158228934,XArbitraryZVertical,-0.182514087,-0.04297951,-0.006211072,0.982243674,-0.086699918,0.358012706,-0.929682732,0,0,0,-1,-1,339639.0919,unknown,2,2023-02-21T15:37:12.232-08:00,2023-02-14T17:43:35.488-08:00,40898,1.273659,0.6287907,2.064428,30353.41,78,100,2023-02-21T15:37:14.794-08:00,698715434.9,0,-1.16,99.33019,1,0.51,0
2023-02-21T15:37:17.152-08:00,1677022637,34.06431412,-118.4499221,118.2092,1.12,0.76,327.9424438,40.1267569,6,14.26776723,-9999,339644.0109,-0.068161011,0.183059692,-0.878433228,339644.0059,-0.016101817,-0.095940519,-0.376008771,-0.420612603,-0.152330875,0.177879825,-0.051630743,-0.324394882,0.134264708,XArbitraryZVertical,-0.187057012,-0.045602426,0.001061994,0.98128947,-0.089101054,0.367211014,-0.925860167,0,0,0,-1,-1,339639.0919,unknown,2,2023-02-21T15:37:12.232-08:00,2023-02-14T17:43:35.488-08:00,40898,1.273659,0.6287907,2.064428,30353.41,78,100,2023-02-21T15:37:14.794-08:00,698715434.9,0,-1.16,99.33019,1,0.51,0
2023-02-21T15:37:17.187-08:00,1677022637,34.06431412,-118.4499221,118.2092,1.12,0.76,327.9424438,40.1267569,6,14.26776723,-9999,339644.0459,-0.097763062,0.26802063,-0.988113403,339644.0359,-0.013105599,-0.10342894,-0.382117411,-0.054565433,-0.352146924,0.062166348,0.006732799,-0.013068527,-0.022622824,XArbitraryZVertical,-0.189973071,-0.049507052,0.003390996,0.980534353,-0.095798336,0.372886002,-0.922918558,0,0,0,-1,-1,339639.0919,unknown,2,2023-02-21T15:37:12.232-08:00,2023-02-14T17:43:35.488-08:00,40898,1.273659,0.6287907,2.064428,30353.41,78,100,2023-02-21T15:37:14.794-08:00,698715434.9,0,-1.16,99.33019,1,0.51,0
2023-02-21T15:37:17.222-08:00,1677022637,34.06431412,-118.4499221,118.2092,1.12,0.76,327.9424438,40.1267569,6,14.26776723,-9999,339644.0809,-0.210693359,0.19619751,-0.912704468,339644.0659,-0.013059819,-0.115793112,-0.383695408,-0.182104751,-0.43642363,-0.052216984,0.006975055,-0.118993908,-0.021075964,XArbitraryZVertical,-0.190720401,-0.055558423,0.004633587,0.980059954,-0.107133731,0.374349713,-0.921077967,0,0,0,-1,-1,339639.0919,unknown,2,2023-02-21T15:37:12.232-08:00,2023-02-14T17:43:35.488-08:00,40898,1.273659,0.6287907,2.064428,30353.41,78,100,2023-02-21T15:37:14.794-08:00,698715434.9,0,-1.16,99.33019,1,0.51,0
2023-02-21T15:37:17.257-08:00,1677022637,34.06431412,-118.4499221,118.2092,1.12,0.76,327.9424438,40.1267569,6,14.26776723,-9999,339644.116,-0.158096313,0.243972778,-0.952407837,339644.0959,-0.018314491,-0.129072428,-0.400608388,-0.943592429,-0.323626071,-0.09398903,-0.106253959,-0.198068887,0.002519667,XArbitraryZVertical,-0.199123673,-0.061381164,0.003875807,0.978042497,-0.11852324,0.389978617,-0.913164258,0,0,0,-1,-1,339639.0919,unknown,2,2023-02-21T15:37:12.232-08:00,2023-02-14T17:43:35.488-08:00,40898,1.273659,0.6287907,2.064428,30353.41,78,100,2023-02-21T15:37:14.794-08:00,698715434.9,0,-1.16,99.33019,1,0.51,0
2023-02-21T15:37:17.292-08:00,1677022637,34.06431412,-118.4499221,118.2092,1.12,0.76,327.9424438,40.1267569,6,14.26776723,-9999,339644.151,-0.190719604,0.507858276,-1.112884521,339644.126,-0.027347721,-0.145711455,-0.434375047,-1.157995701,-0.553784549,-0.161458552,-0.026383832,-0.176870823,-0.054887652,XArbitraryZVertical,-0.215864267,-0.068135995,0.002367109,0.974040314,-0.131712466,0.420843571,-0.897520185,0,0,0,-1,-1,339639.0919,unknown,2,2023-02-21T15:37:12.232-08:00,2023-02-14T17:43:35.488-08:00,40898,1.273659,0.6287907,2.064428,30353.41,78,100,2023-02-21T15:37:14.794-08:00,698715434.9,0,-1.16,99.33019,1,0.51,0
2023-02-21T15:37:17.327-08:00,1677022637,34.06431412,-118.4499221,118.2092,1.12,0.76,327.9424438,40.1267569,6,14.26776723,-9999,339644.186,-0.215026855,0.400680542,-0.793319702,339644.156,-0.035058349,-0.167396645,-0.459691812,-0.648170114,-0.627426744,-0.05859226,-0.006152347,0.090538204,-0.246968269,XArbitraryZVertical,-0.22842191,-0.077410118,0.002036036,0.970477645,-0.149319425,0.443671942,-0.883662224,0,0,0,-1,-1,339639.0919,unknown,2,2023-02-21T15:37:12.232-08:00,2023-02-14T17:43:35.488-08:00,40898,1.273659,0.6287907,2.064428,30353.41,78,100,2023-02-21T15:37:14.794-08:00,698715434.9,0,-1.16,99.33019,1,0.51,0
2023-02-21T15:37:17.362-08:00,1677022637,34.06431412,-118.4499221,118.2092,1.12,0.76,327.9424438,40.1267569,6,14.26776723,-9999,339644.2211,-0.160324097,0.685699463,-0.836425781,339644.216,-0.053828667,-0.20600991,-0.542227194,-2.421535969,-0.372482151,-0.007773386,-0.030687451,-0.133430898,0.085382342,XArbitraryZVertical,-0.268954611,-0.091862532,0.001735785,0.958760456,-0.175214633,0.516044974,-0.838449359,0,0,0,-1,-1,339639.0919,unknown,2,2023-02-21T15:37:12.232-08:00,2023-02-14T17:43:35.488-08:00,40898,1.273659,0.6287907,2.064428,30353.41,78,100,2023-02-21T15:37:14.794-08:00,698715434.9,0,-1.16,99.33019,1,0.51,0
2023-02-21T15:37:17.402-08:00,1677022637,34.06431412,-118.4499221,118.2092,1.12,0.76,327.9424438,40.1267569,6,14.26776723,-9999,339644.2561,-0.163833618,0.935287476,-0.75579834,339644.2461,-0.070758989,-0.224990418,-0.621221333,-3.160947561,-0.307684511,0.235542595,0.047611102,0.264116824,-0.062352955,XArbitraryZVertical,-0.307298961,-0.096076524,0.000822538,0.946750174,-0.181415409,0.582028747,-0.79267329,0,0,0,-1,-1,339639.0919,unknown,2,2023-02-21T15:37:12.232-08:00,2023-02-14T17:43:35.488-08:00,40898,1.273659,0.6287907,2.064428,30353.41,78,100,2023-02-21T15:37:14.794-08:00,698715434.9,0,-1.16,99.33019,1,0.51,0
2023-02-21T15:37:17.432-08:00,1677022637,34.06431412,-118.4499221,118.2092,1.12,0.76,327.9424438,40.1267569,6,14.26776723,-9999,339644.2911,-0.17918396,0.924606323,-0.546218872,339644.2761,-0.09182194,-0.246191618,-0.727913821,-4.135277748,-0.227104187,0.27910018,-0.039046288,0.31892401,0.079796612,XArbitraryZVertical,-0.358175016,-0.09840752,0.00109837,0.928453147,-0.181946725,0.665313601,-0.724053264,0,0,0,-1,-1,339639.0919,unknown,2,2023-02-21T15:37:12.232-08:00,2023-02-14T17:43:35.488-08:00,40898,1.273659,0.6287907,2.064428,30353.41,78,100,2023-02-21T15:37:14.794-08:00,698715434.9,0,-1.16,99.33019,1,0.51,0
2023-02-21T15:37:17.470-08:00,1677022637,34.06431412,-118.4499221,118.2092,1.12,0.76,327.9424438,40.1267569,6,14.26776723,-9999,339644.3261,-0.225769043,0.98600769,-0.373123169,339644.3061,-0.136819368,-0.28705257,-0.856792498,-4.492723942,-0.319029123,-0.073900573,0.008285701,0.188650906,0.115450442,XArbitraryZVertical,-0.419073224,-0.101700058,-0.002260705,0.902235884,-0.18540968,0.755745947,-0.62806946,0,0,0,-1,-1,339644.216,unknown,2,2023-02-21T15:37:17.356-08:00,2023-02-14T17:43:35.488-08:00,40902,1.273604,0.6718748,1.938066,30356.48,78,100,2023-02-21T15:37:17.356-08:00,698715437.4,0,-1.029999,99.29601,1,0.51,0
2023-02-21T15:37:17.502-08:00,1677022637,34.06431412,-118.4499221,118.2092,1.12,0.76,327.9424438,40.1267569,6,14.26776723,-9999,339644.3612,-0.285583496,0.912399292,-0.273895264,339644.3361,-0.214333946,-0.357109313,-0.980963862,-4.483907223,-0.232864738,-0.265483409,-0.031332046,0.154973745,0.148007154,XArbitraryZVertical,-0.477660222,-0.106186248,-0.009669519,0.872050235,-0.194436967,0.831033885,-0.521130383,0,0,0,-1,-1,339644.216,unknown,2,2023-02-21T15:37:17.356-08:00,2023-02-14T17:43:35.488-08:00,40902,1.273604,0.6718748,1.938066,30356.48,78,100,2023-02-21T15:37:17.356-08:00,698715437.4,0,-1.029999,99.29601,1,0.51,0
2023-02-21T15:37:17.537-08:00,1677022637,34.06431412,-118.4499221,118.2092,1.12,0.76,327.9424438,40.1267569,6,14.26776723,-9999,339644.3962,-0.203994751,0.986038208,-0.229614258,339644.3662,-0.346982831,-0.477925992,-1.110943403,-5.234773159,-0.143812954,-0.287333965,-0.075641721,0.021423578,0.126203567,XArbitraryZVertical,-0.539383523,-0.109644818,-0.01955509,0.834662139,-0.204128146,0.896117806,-0.394086868,0,0,0,-1,-1,339644.216,unknown,2,2023-02-21T15:37:17.356-08:00,2023-02-14T17:43:35.488-08:00,40902,1.273604,0.6718748,1.938066,30356.48,78,100,2023-02-21T15:37:17.356-08:00,698715437.4,0,-1.029999,99.29601,1,0.51,0
2023-02-21T15:37:17.572-08:00,1677022637,34.06431412,-118.4499221,118.2092,1.12,0.76,327.9424438,40.1267569,6,14.26776723,-9999,339644.4312,-0.248001099,0.947036743,0.162246704,339644.4262,-1.102394984,-1.198131192,-1.346175042,-5.448395252,0.168207869,0.10625378,-0.028192595,-0.055338144,-0.051561534,XArbitraryZVertical,-0.669493845,-0.105965798,-0.038722268,0.73420018,-0.207448855,0.97487855,-0.081098482,0,0,0,-1,-1,339644.216,unknown,2,2023-02-21T15:37:17.356-08:00,2023-02-14T17:43:35.488-08:00,40902,1.273604,0.6718748,1.938066,30356.48,78,100,2023-02-21T15:37:17.356-08:00,698715437.4,0,-1.029999,99.29601,1,0.51,0
2023-02-21T15:37:17.607-08:00,1677022637,34.06431412,-118.4499221,118.2092,1.12,0.76,327.9424438,40.1267569,6,14.26776723,-9999,339644.4663,-0.200881958,0.915969849,-0.104309082,339644.4562,-1.775659247,-1.854792299,-1.360593288,-3.842603445,-0.004356055,0.327776641,0.034681529,0.017464399,0.02852536,XArbitraryZVertical,-0.720606615,-0.099792405,-0.044160172,0.684702477,-0.20030044,0.977988541,0.058464836,0,0,0,-1,-1,339644.216,unknown,2,2023-02-21T15:37:17.356-08:00,2023-02-14T17:43:35.488-08:00,40902,1.273604,0.6718748,1.938066,30356.48,78,100,2023-02-21T15:37:17.356-08:00,698715437.4,0,-1.029999,99.29601,1,0.51,0
2023-02-21T15:37:17.642-08:00,1677022637,34.06431412,-118.4499221,118.2092,1.12,0.76,327.9424438,40.1267569,6,14.26776723,-9999,339644.5013,-0.112701416,0.980606079,-0.139266968,339644.4863,-2.205703636,-2.274558673,-1.315351316,-3.809695959,-0.032284491,0.213693023,0.009583727,-0.23219943,-0.308691621,XArbitraryZVertical,-0.756815533,-0.094775362,-0.046493624,0.645047443,-0.192643404,0.967550933,0.163504243,0,0,0,-1,-1,339644.216,unknown,2,2023-02-21T15:37:17.356-08:00,2023-02-14T17:43:35.488-08:00,40902,1.273604,0.6718748,1.938066,30356.48,78,100,2023-02-21T15:37:17.356-08:00,698715437.4,0,-1.029999,99.29601,1,0.51,0
2023-02-21T15:37:17.677-08:00,1677022637,34.06431412,-118.4499221,118.2092,1.12,0.76,327.9424438,40.1267569,6,14.26776723,-9999,339644.5363,-0.289474487,0.87322998,0.368331909,339644.5163,-2.469503407,-2.52857119,-1.239595217,-2.926468372,0.024449894,0.193912923,0.058427021,0.10505265,-0.370781243,XArbitraryZVertical,-0.790445495,-0.090444444,-0.04925459,0.603812701,-0.187089145,0.945652425,0.265968561,0,0,0,-1,-1,339644.216,unknown,2,2023-02-21T15:37:17.356-08:00,2023-02-14T17:43:35.488-08:00,40902,1.273604,0.6718748,1.938066,30356.48,78,100,2023-02-21T15:37:17.356-08:00,698715437.4,0,-1.029999,99.29601,1,0.51,0
2023-02-21T15:37:17.712-08:00,1677022637,34.06431412,-118.4499221,118.2092,1.12,0.76,327.9424438,40.1267569,6,14.26776723,-9999,339644.5713,-0.141952515,0.684890747,0.191497803,339644.5463,-2.592660804,-2.637834412,-1.181691636,-2.063620806,0.329781771,0.258633226,-0.106349841,-0.052019238,0.036098212,XArbitraryZVertical,-0.811789818,-0.084344953,-0.053007683,0.575389661,-0.183124617,0.9252491,0.332233548,0,0,0,-1,-1,339644.216,unknown,2,2023-02-21T15:37:17.356-08:00,2023-02-14T17:43:35.488-08:00,40902,1.273604,0.6718748,1.938066,30356.48,78,100,2023-02-21T15:37:17.356-08:00,698715437.4,0,-1.029999,99.29601,1,0.51,0
2023-02-21T15:37:17.747-08:00,1677022637,34.06431412,-118.4499221,118.2092,1.12,0.76,327.9424438,40.1267569,6,14.26776723,-9999,339644.6064,-0.163467407,1.099822998,0.061279297,339644.5763,-2.676190748,-2.702510087,-1.129562081,-2.159930229,0.408755571,0.14906247,0.015941843,-0.207844555,-0.130397141,XArbitraryZVertical,-0.829090301,-0.076697243,-0.058538254,0.550726926,-0.181545466,0.90422529,0.386546403,0,0,0,-1,-1,339644.216,unknown,2,2023-02-21T15:37:17.356-08:00,2023-02-14T17:43:35.488-08:00,40902,1.273604,0.6718748,1.938066,30356.48,78,100,2023-02-21T15:37:17.356-08:00,698715437.4,0,-1.029999,99.29601,1,0.51,0
2023-02-21T15:37:17.782-08:00,1677022637,34.06431412,-118.4499221,118.2092,1.12,0.76,327.9424438,40.1267569,6,14.26776723,-9999,339644.6414,-0.25088501,0.932098389,0.271179199,339644.6364,-2.748588668,-2.755942417,-1.05017671,-0.571238279,-0.054944396,-0.161209017,-0.035317764,0.215466261,-0.267830491,XArbitraryZVertical,-0.851655456,-0.071591535,-0.066566841,0.514904458,-0.187109634,0.867511153,0.46088472,0,0,0,-1,-1,339644.216,unknown,2,2023-02-21T15:37:17.356-08:00,2023-02-14T17:43:35.488-08:00,40902,1.273604,0.6718748,1.938066,30356.48,78,100,2023-02-21T15:37:17.356-08:00,698715437.4,0,-1.029999,99.29601,1,0.51,0
2023-02-21T15:37:17.817-08:00,1677022637,34.06431412,-118.4499221,118.2092,1.12,0.76,327.9424438,40.1267569,6,14.26776723,-9999,339644.6764,-0.239929199,0.814346313,0.416137695,339644.6664,-2.757057989,-2.763673856,-1.023899924,-1.165941,0.003090477,-0.249536499,-0.065207779,0.101225495,-0.046834052,XArbitraryZVertical,-0.858078262,-0.07329929,-0.068794987,0.503583362,-0.191887572,0.854142606,0.483342171,0,0,0,-1,-1,339644.216,unknown,2,2023-02-21T15:37:17.356-08:00,2023-02-14T17:43:35.488-08:00,40902,1.273604,0.6718748,1.938066,30356.48,78,100,2023-02-21T15:37:17.356-08:00,698715437.4,0,-1.029999,99.29601,1,0.51,0
2023-02-21T15:37:17.853-08:00,1677022637,34.06431412,-118.4499221,118.2092,1.12,0.76,327.9424438,40.1267569,6,14.26776723,-9999,339644.7115,-0.224212646,0.995605469,0.576599121,339644.6964,-2.765677867,-2.769945415,-0.992808407,-0.437877297,0.06535998,-0.202328786,-0.049215913,0.047934473,-0.037087262,XArbitraryZVertical,-0.865385227,-0.075027754,-0.072135281,0.490179341,-0.198403731,0.837563634,0.509041488,0,0,0,-1,-1,339644.216,unknown,2,2023-02-21T15:37:17.356-08:00,2023-02-14T17:43:35.488-08:00,40902,1.273604,0.6718748,1.938066,30356.48,78,100,2023-02-21T15:37:17.356-08:00,698715437.4,0,-1.029999,99.29601,1,0.51,0
2023-02-21T15:37:17.888-08:00,1677022637,34.06431412,-118.4499221,118.2092,1.12,0.76,327.9424438,40.1267569,6,14.26776723,-9999,339644.7465,-0.132202148,0.994506836,0.696792603,339644.7265,-2.756910275,-2.760458925,-0.991184917,0.035864118,0.068045445,-0.102259412,-0.006903037,0.149866283,0.093729019,XArbitraryZVertical,-0.865052824,-0.076698557,-0.074293921,0.490185104,-0.203729317,0.836675525,0.508398116,0,0,0,-1,-1,339644.216,unknown,2,2023-02-21T15:37:17.356-08:00,2023-02-14T17:43:35.488-08:00,40902,1.273604,0.6718748,1.938066,30356.48,78,100,2023-02-21T15:37:17.356-08:00,698715437.4,0,-1.029999,99.29601,1,0.51,0
2023-02-21T15:37:17.922-08:00,1677022637,34.06431412,-118.4499221,118.2092,1.12,0.76,327.9424438,40.1267569,6,14.26776723,-9999,339644.7815,-0.08430481,1.029785156,0.642349243,339644.7565,-2.757626967,-2.761312923,-0.986492205,-0.297003061,-0.11185988,0.009517586,0.072547913,0.160410762,0.184580624,XArbitraryZVertical,-0.866110661,-0.077189605,-0.074693684,0.48817509,-0.204750076,0.834096134,0.5122118,0,0,0,-1,-1,339644.216,unknown,2,2023-02-21T15:37:17.356-08:00,2023-02-14T17:43:35.488-08:00,40902,1.273604,0.6718748,1.938066,30356.48,78,100,2023-02-21T15:37:17.356-08:00,698715437.4,0,-1.029999,99.29601,1,0.51,0
2023-02-21T15:37:17.957-08:00,1677022637,34.06431412,-118.4499221,118.2092,1.12,0.76,327.9424438,40.1267569,6,14.26776723,-9999,339644.8165,-0.149154663,1.108932495,0.773422241,339644.7865,-2.770694286,-2.780166581,-0.975185468,-0.613080263,-0.44604519,0.17592448,0.107330263,0.21295011,0.105327249,XArbitraryZVertical,-0.869701249,-0.077487017,-0.071083943,0.482247277,-0.198379397,0.827805936,0.524769008,0,0,0,-1,-1,339644.216,unknown,2,2023-02-21T15:37:17.356-08:00,2023-02-14T17:43:35.488-08:00,40902,1.273604,0.6718748,1.938066,30356.48,78,100,2023-02-21T15:37:17.356-08:00,698715437.4,0,-1.029999,99.29601,1,0.51,0
2023-02-21T15:37:17.992-08:00,1677022637,34.06431412,-118.4499221,118.2092,1.12,0.76,327.9424438,40.1267569,6,14.26776723,-9999,339644.8516,-0.056671143,0.893920898,0.645111084,339644.8466,-2.815135758,-2.849644793,-0.938543797,-0.566992044,-0.457517892,0.070204608,0.086151361,0.236071885,0.186133802,XArbitraryZVertical,-0.881372571,-0.078489743,-0.055298502,0.462562117,-0.17008993,0.806698382,0.565956473,0,0,0,-1,-1,339644.216,unknown,2,2023-02-21T15:37:17.356-08:00,2023-02-14T17:43:35.488-08:00,40902,1.273604,0.6718748,1.938066,30356.48,78,100,2023-02-21T15:37:17.356-08:00,698715437.4,0,-1.029999,99.29601,1,0.51,0
2023-02-21T15:37:18.027-08:00,1677022637,34.06431412,-118.4499221,118.2092,1.12,0.76,327.9424438,40.1267569,6,14.26776723,-9999,339644.8866,-0.056793213,0.772735596,0.558074951,339644.8766,-2.820298304,-2.864728959,-0.925937799,-0.291957378,-0.295167267,-0.082889773,0.09209621,0.066705763,0.019125879,XArbitraryZVertical,-0.884618559,-0.080915604,-0.051119812,0.456387437,-0.164300799,0.799184799,0.578194678,0,0,0,-1,-1,339644.216,unknown,2,2023-02-21T15:37:17.356-08:00,2023-02-14T17:43:35.488-08:00,40902,1.273604,0.6718748,1.938066,30356.48,78,100,2023-02-21T15:37:17.356-08:00,698715437.4,0,-1.029999,99.29601,1,0.51,0
2023-02-21T15:37:18.063-08:00,1677022637,34.06431412,-118.4499221,118.2092,1.12,0.76,327.9424438,40.1267569,6,14.26776723,-9999,339644.9216,-0.127700806,0.934768677,0.703811646,339644.9066,-2.81819188,-2.872803607,-0.92030547,0.060415052,-0.357057035,-0.103662133,0.083350718,0.02075702,0.022459805,XArbitraryZVertical,-0.885902314,-0.08422291,-0.047635697,0.453667783,-0.16081959,0.795786619,0.5838328,0,0,0,-1,-1,339644.216,unknown,2,2023-02-21T15:37:17.356-08:00,2023-02-14T17:43:35.488-08:00,40902,1.273604,0.6718748,1.938066,30356.48,78,100,2023-02-21T15:37:17.356-08:00,698715437.4,0,-1.029999,99.29601,1,0.51,0
2023-02-21T15:37:18.097-08:00,1677022638,34.0643294,-118.449937,117.457,1.16,0.59,327.9424438,27.21271846,6,14.26776723,-9999,339644.9567,-0.090637207,0.533615112,0.502563477,339644.9366,-2.80643353,-2.87467492,-0.931045177,0.551239491,-0.405940652,-0.183881491,0.034721687,0.120408893,0.096477449,XArbitraryZVertical,-0.883197205,-0.088827746,-0.043030385,0.458498354,-0.157463387,0.802244365,0.575855315,0,0,0,-1,-1,339644.216,unknown,2,2023-02-21T15:37:17.356-08:00,2023-02-14T17:43:35.488-08:00,40902,1.273604,0.6718748,1.938066,30356.48,78,100,2023-02-21T15:37:17.356-08:00,698715437.4,0,-1.029999,99.29601,1,0.51,0
2023-02-21T15:37:18.133-08:00,1677022638,34.0643294,-118.449937,117.457,1.16,0.59,327.9424438,27.21271846,6,14.26776723,-9999,339644.9917,-0.110671997,0.781097412,0.483474731,339644.9667,-2.797021982,-2.881137757,-0.934016711,-0.24876821,-0.507214904,-0.106024988,0.062486619,-0.270399809,-0.071991265,XArbitraryZVertical,-0.882273879,-0.094181252,-0.037708445,0.459674524,-0.153123796,0.804014802,0.574554622,0,0,0,-1,-1,339644.216,unknown,2,2023-02-21T15:37:17.356-08:00,2023-02-14T17:43:35.488-08:00,40902,1.273604,0.6718748,1.938066,30356.48,78,100,2023-02-21T15:37:17.356-08:00,698715437.4,0,-1.029999,99.29601,1,0.51,0
2023-02-21T15:37:18.168-08:00,1677022638,34.0643294,-118.449937,117.457,1.16,0.59,327.9424438,27.21271846,6,14.26776723,-9999,339645.0267,-0.186767578,0.738037109,0.455856323,339644.9967,-2.793021964,-2.89250128,-0.932430126,0.321172684,-0.46986714,-0.089066572,0.017535388,-0.073410511,-0.104424894,XArbitraryZVertical,-0.882612016,-0.098704319,-0.031942224,0.458511804,-0.146899372,0.803070366,0.577493012,0,0,0,-1,-1,339644.216,unknown,2,2023-02-21T15:37:17.356-08:00,2023-02-14T17:43:35.488-08:00,40902,1.273604,0.6718748,1.938066,30356.48,78,100,2023-02-21T15:37:17.356-08:00,698715437.4,0,-1.029999,99.29601,1,0.51,0
2023-02-21T15:37:18.203-08:00,1677022638,34.0643294,-118.449937,117.457,1.16,0.59,327.9424438,27.21271846,6,14.26776723,-9999,339645.0617,-0.196792603,0.496810913,0.376052856,339645.0567,-2.770741825,-2.896519007,-0.944320468,-0.25594148,-0.244126827,-0.157559678,-0.006400093,-0.247614086,-0.215289533,XArbitraryZVertical,-0.879007022,-0.108322937,-0.023768465,0.463732391,-0.142251,0.810098708,0.568774402,0,0,0,-1,-1,339644.216,unknown,2,2023-02-21T15:37:17.356-08:00,2023-02-14T17:43:35.488-08:00,40902,1.273604,0.6718748,1.938066,30356.48,78,100,2023-02-21T15:37:17.356-08:00,698715437.4,0,-1.029999,99.29601,1,0.51,0
2023-02-21T15:37:18.238-08:00,1677022638,34.0643294,-118.449937,117.457,1.16,0.59,327.9424438,27.21271846,6,14.26776723,-9999,339645.0968,-0.220840454,0.798904419,0.367523193,339645.0868,-2.767923806,-2.898514007,-0.935322441,-0.055977333,-0.045832392,-0.14533031,-0.086581588,-0.268825531,-0.188063025,XArbitraryZVertical,-0.880772818,-0.110877424,-0.023220686,0.459789284,-0.142864794,0.804790497,0.576109111,0,0,0,-1,-1,339644.216,unknown,2,2023-02-21T15:37:17.356-08:00,2023-02-14T17:43:35.488-08:00,40902,1.273604,0.6718748,1.938066,30356.48,78,100,2023-02-21T15:37:17.356-08:00,698715437.4,0,-1.029999,99.29601,1,0.51,0
2023-02-21T15:37:18.273-08:00,1677022638,34.0643294,-118.449937,117.457,1.16,0.59,327.9424438,27.21271846,6,14.26776723,-9999,339645.1318,-0.21131897,0.68421936,0.406234741,339645.1168,-2.756174196,-2.890153165,-0.940101202,0.285140634,-0.040850021,-0.209713891,-0.077784568,0.041030228,-0.178966463,XArbitraryZVertical,-0.879012622,-0.113658718,-0.023660271,0.462448522,-0.146717966,0.807617784,0.571162999,0,0,0,-1,-1,339644.216,unknown,2,2023-02-21T15:37:17.356-08:00,2023-02-14T17:43:35.488-08:00,40902,1.273604,0.6718748,1.938066,30356.48,78,100,2023-02-21T15:37:17.356-08:00,698715437.4,0,-1.029999,99.29601,1,0.51,0
2023-02-21T15:37:18.308-08:00,1677022638,34.0643294,-118.449937,117.457,1.16,0.59,327.9424438,27.21271846,6,14.26776723,-9999,339645.1668,-0.255569458,0.805297852,0.519958496,339645.1468,-2.745159798,-2.883190841,-0.943310575,0.151735812,-0.061416544,-0.171813667,-0.075374886,-0.11152339,-0.145454109,XArbitraryZVertical,-0.877623109,-0.116564092,-0.023799552,0.464353403,-0.150027946,0.809506238,0.567619026,0,0,0,-1,-1,339644.216,unknown,2,2023-02-21T15:37:17.356-08:00,2023-02-14T17:43:35.488-08:00,40902,1.273604,0.6718748,1.938066,30356.48,78,100,2023-02-21T15:37:17.356-08:00,698715437.4,0,-1.029999,99.29601,1,0.51,0
2023-02-21T15:37:18.343-08:00,1677022638,34.0643294,-118.449937,117.457,1.16,0.59,327.9424438,27.21271846,6,14.26776723,-9999,339645.2019,-0.176849365,0.854873657,0.51663208,339645.1768,-2.734628106,-2.874920498,-0.946456688,0.160709858,0.046210982,-0.176865608,-0.101524204,-0.00605154,-0.043940783,XArbitraryZVertical,-0.876244113,-0.118936428,-0.024606606,0.466309873,-0.154045254,0.811349332,0.563899219,0,0,0,-1,-1,339644.216,unknown,2,2023-02-21T15:37:17.356-08:00,2023-02-14T17:43:35.488-08:00,40902,1.273604,0.6718748,1.938066,30356.48,78,100,2023-02-21T15:37:17.356-08:00,698715437.4,0,-1.029999,99.29601,1,0.51,0
2023-02-21T15:37:18.378-08:00,1677022638,34.0643294,-118.449937,117.457,1.16,0.59,327.9424438,27.21271846,6,14.26776723,-9999,339645.2369,-0.210540771,0.99647522,0.605010986,339645.2069,-2.725621397,-2.864734975,-0.944588892,-0.162948892,0.134466141,-0.193983138,-0.02390264,0.043473125,-0.060171843,XArbitraryZVertical,-0.875961985,-0.120703506,-0.02719326,0.466242097,-0.160194635,0.810256064,0.563757479,0,0,0,-1,-1,339644.216,unknown,2,2023-02-21T15:37:17.356-08:00,2023-02-14T17:43:35.488-08:00,40902,1.273604,0.6718748,1.938066,30356.48,78,100,2023-02-21T15:37:17.356-08:00,698715437.4,0,-1.029999,99.29601,1,0.51,0
2023-02-21T15:37:18.413-08:00,1677022638,34.0643294,-118.449937,117.457,1.16,0.59,327.9424438,27.21271846,6,14.26776723,-9999,339645.2719,-0.196380615,1.008468628,0.620254517,339645.2669,-2.706608829,-2.839022339,-0.940613148,0.267430812,0.103220806,-0.199029788,-0.033161193,0.224245846,0.025458872,XArbitraryZVertical,-0.875223733,-0.123470531,-0.034514696,0.466419409,-0.17559427,0.807919562,0.562523127,0,0,0,-1,-1,339644.216,unknown,2,2023-02-21T15:37:17.356-08:00,2023-02-14T17:43:35.488-08:00,40902,1.273604,0.6718748,1.938066,30356.48,78,100,2023-02-21T15:37:17.356-08:00,698715437.4,0,-1.029999,99.29601,1,0.51,0
2023-02-21T15:37:18.448-08:00,1677022638,34.0643294,-118.449937,117.457,1.16,0.59,327.9424438,27.21271846,6,14.26776723,-9999,339645.3069,-0.202682495,0.874664307,0.745666504,339645.2969,-2.697873255,-2.831110197,-0.941957282,-0.162371159,-0.036635034,-0.068490192,-0.001185328,0.054341376,0.115928173,XArbitraryZVertical,-0.874267476,-0.1252888,-0.035760999,0.467632539,-0.179707602,0.808710933,0.56008178,0,0,0,-1,-1,339644.216,unknown,2,2023-02-21T15:37:17.356-08:00,2023-02-14T17:43:35.488-08:00,40902,1.273604,0.6718748,1.938066,30356.48,78,100,2023-02-21T15:37:17.356-08:00,698715437.4,0,-1.029999,99.29601,1,0.51,0
2023-02-21T15:37:18.483-08:00,1677022638,34.0643294,-118.449937,117.457,1.16,0.59,327.9424438,27.21271846,6,14.26776723,-9999,339645.342,-0.190353394,0.986801147,0.772094727,339645.327,-2.704782187,-2.839551605,-0.932382484,-0.474599898,-0.180196196,0.116703764,-0.020408794,0.134671748,0.201607525,XArbitraryZVertical,-0.876792616,-0.125330594,-0.034916601,0.462934003,-0.177268818,0.803041995,0.568946123,0,0,0,-1,-1,339644.216,unknown,2,2023-02-21T15:37:17.356-08:00,2023-02-14T17:43:35.488-08:00,40902,1.273604,0.6718748,1.938066,30356.48,78,100,2023-02-21T15:37:17.356-08:00,698715437.4,0,-1.029999,99.29601,1,0.51,0
2023-02-21T15:37:18.518-08:00,1677022638,34.0643294,-118.449937,117.457,1.16,0.59,327.9424438,27.21271846,6,14.26776723,-9999,339645.377,-0.180007935,0.878814697,0.707855225,339645.357,-2.718769757,-2.858838738,-0.922668333,-0.246641517,-0.311392754,0.195799738,-0.033075809,0.2045241,0.194203079,XArbitraryZVertical,-0.87994943,-0.124701558,-0.030889859,0.457366819,-0.168431729,0.797215343,0.579722941,0,0,0,-1,-1,339644.216,unknown,2,2023-02-21T15:37:17.356-08:00,2023-02-14T17:43:35.488-08:00,40902,1.273604,0.6718748,1.938066,30356.48,78,100,2023-02-21T15:37:17.356-08:00,698715437.4,0,-1.029999,99.29601,1,0.51,0
2023-02-21T15:37:18.553-08:00,1677022638,34.0643294,-118.449937,117.457,1.16,0.59,327.9424438,27.21271846,6,14.26776723,-9999,339645.412,-0.138916016,0.697341919,0.658340454,339645.387,-2.731198497,-2.876372742,-0.917555472,-0.332619965,-0.179670081,0.177145198,-0.020700172,0.084696174,0.121342778,XArbitraryZVertical,-0.882008872,-0.123759874,-0.026618654,0.453910935,-0.159307703,0.794118285,0.586512327,0,0,0,-1,-1,339644.216,unknown,2,2023-02-21T15:37:17.356-08:00,2023-02-14T17:43:35.488-08:00,40902,1.273604,0.6718748,1.938066,30356.48,78,100,2023-02-21T15:37:17.356-08:00,698715437.4,0,-1.029999,99.29601,1,0.51,0
2023-02-21T15:37:18.588-08:00,1677022638,34.0643294,-118.449937,117.457,1.16,0.59,327.9424438,27.21271846,6,14.26776723,-9999,339645.4471,-0.154510498,0.887023926,0.564361572,339645.417,-2.745066985,-2.889211645,-0.905074341,-0.534997582,0.058252998,0.187343761,0.012809321,-0.087038875,0.073829353,XArbitraryZVertical,-0.885550807,-0.121779122,-0.02553141,0.447568593,-0.154227749,0.786471069,0.598060787,0,0,0,-1,-1,339644.216,unknown,2,2023-02-21T15:37:17.356-08:00,2023-02-14T17:43:35.488-08:00,40902,1.273604,0.6718748,1.938066,30356.48,78,100,2023-02-21T15:37:17.356-08:00,698715437.4,0,-1.029999,99.29601,1,0.51,0
2023-02-21T15:37:18.623-08:00,1677022638,34.0643294,-118.449937,117.457,1.16,0.59,327.9424438,27.21271846,6,14.26776723,-9999,339645.4821,-0.146957397,0.688903809,0.660690308,339645.4771,-2.761335231,-2.897188555,-0.91073141,0.26907745,0.058204662,0.19645372,0.014309615,0.011988461,0.069116592,XArbitraryZVertical,-0.88547108,-0.115818396,-0.02500979,0.449334616,-0.148373321,0.789952457,0.594945848,0,0,0,-1,-1,339644.216,unknown,2,2023-02-21T15:37:17.356-08:00,2023-02-14T17:43:35.488-08:00,40902,1.273604,0.6718748,1.938066,30356.48,78,100,2023-02-21T15:37:17.356-08:00,698715437.4,0,-1.029999,99.29601,1,0.51,0
2023-02-21T15:37:18.658-08:00,1677022638,34.0643294,-118.449937,117.457,1.16,0.59,327.9424438,27.21271846,6,14.26776723,-9999,339645.5171,-0.137023926,0.673904419,0.502487183,339645.5071,-2.771095995,-2.904283973,-0.915581364,-0.040043324,-0.020610593,0.252485335,0.02796568,-0.142999411,0.017045975,XArbitraryZVertical,-0.885120657,-0.112639732,-0.023536385,0.45090984,-0.143245816,0.792916954,0.592252553,0,0,0,-1,-1,339644.216,unknown,2,2023-02-21T15:37:17.356-08:00,2023-02-14T17:43:35.488-08:00,40902,1.273604,0.6718748,1.938066,30356.48,78,100,2023-02-21T15:37:17.356-08:00,698715437.4,0,-1.029999,99.29601,1,0.51,0
2023-02-21T15:37:18.693-08:00,1677022638,34.0643294,-118.449937,117.457,1.16,0.59,327.9424438,27.21271846,6,14.26776723,-9999,339645.5521,-0.124755859,0.718093872,0.558578491,339645.5371,-2.781826292,-2.914789592,-0.917532775,0.112027004,-0.123435244,0.184707746,0.009699509,-0.080069423,-0.111243904,XArbitraryZVertical,-0.885432174,-0.110081555,-0.021098828,0.451050748,-0.136667892,0.794104517,0.592216194,0,0,0,-1,-1,339644.216,unknown,2,2023-02-21T15:37:17.356-08:00,2023-02-14T17:43:35.488-08:00,40902,1.273604,0.6718748,1.938066,30356.48,78,100,2023-02-21T15:37:17.356-08:00,698715437.4,0,-1.029999,99.29601,1,0.51,0
2023-02-21T15:37:18.728-08:00,1677022638,34.0643294,-118.449937,117.457,1.16,0.59,327.9424438,27.21271846,6,14.26776723,-9999,339645.5872,-0.109710693,0.574325562,0.509094238,339645.5672,-2.787979299,-2.924248623,-0.920439644,0.024552342,-0.160549656,0.110511705,0.00756067,-0.091186345,-0.022225738,XArbitraryZVertical,-0.885257171,-0.109236952,-0.018000314,0.451733414,-0.130561784,0.79586786,0.591225922,0,0,0,-1,-1,339644.216,unknown,2,2023-02-21T15:37:17.356-08:00,2023-02-14T17:43:35.488-08:00,40902,1.273604,0.6718748,1.938066,30356.48,78,100,2023-02-21T15:37:17.356-08:00,698715437.4,0,-1.029999,99.29601,1,0.51,0
2023-02-21T15:37:18.763-08:00,1677022638,34.0643294,-118.449937,117.457,1.16,0.59,327.9424438,27.21271846,6,14.26776723,-9999,339645.6222,-0.120040894,0.690597534,0.396728516,339645.5972,-2.793145534,-2.931961944,-0.918377475,-0.235365674,-0.07372155,0.079116508,0.016628116,-0.22029227,-0.084724784,XArbitraryZVertical,-0.886034883,-0.108865063,-0.015958183,0.450372896,-0.126338765,0.794617593,0.593818843,0,0,0,-1,-1,339644.216,unknown,2,2023-02-21T15:37:17.356-08:00,2023-02-14T17:43:35.488-08:00,40902,1.273604,0.6718748,1.938066,30356.48,78,100,2023-02-21T15:37:17.356-08:00,698715437.4,0,-1.029999,99.29601,1,0.51,0
2023-02-21T15:37:18.798-08:00,1677022638,34.0643294,-118.449937,117.457,1.16,0.59,327.9424438,27.21271846,6,14.26776723,-9999,339645.6572,-0.147323608,0.717437744,0.554046631,339645.6272,-2.797408922,-2.937258075,-0.914520442,0.001593229,-0.064930253,0.051648159,0.009875715,-0.094607949,-0.209582806,XArbitraryZVertical,-0.88711252,-0.108487322,-0.014951612,0.448372765,-0.123813048,0.792270064,0.597476244,0,0,0,-1,-1,339644.216,unknown,2,2023-02-21T15:37:17.356-08:00,2023-02-14T17:43:35.488-08:00,40902,1.273604,0.6718748,1.938066,30356.48,78,100,2023-02-21T15:37:17.356-08:00,698715437.4,0,-1.029999,99.29601,1,0.51,0
2023-02-21T15:37:18.833-08:00,1677022638,34.0643294,-118.449937,117.457,1.16,0.59,327.9424438,27.21271846,6,14.26776723,-9999,339645.6923,-0.163726807,0.653045654,0.498382568,339645.6873,-2.798069321,-2.938937282,-0.921067721,0.009953212,0.007516915,-0.002900501,-0.01800748,-0.096434057,-0.07147187,XArbitraryZVertical,-0.885790111,-0.108031779,-0.013711248,0.451128605,-0.121763028,0.796248019,0.592589974,0,0,0,-1,-1,339644.216,unknown,2,2023-02-21T15:37:17.356-08:00,2023-02-14T17:43:35.488-08:00,40902,1.273604,0.6718748,1.938066,30356.48,78,100,2023-02-21T15:37:17.356-08:00,698715437.4,0,-1.029999,99.29601,1,0.51,0
2023-02-21T15:37:18.868-08:00,1677022638,34.0643294,-118.449937,117.457,1.16,0.59,327.9424438,27.21271846,6,14.26776723,-9999,339645.7273,-0.194641113,0.804519653,0.530410767,339645.7173,-2.798528421,-2.93831024,-0.918099773,-0.078801684,0.063949957,-0.023102108,-0.078362361,-0.054595947,-0.109855533,XArbitraryZVertical,-0.886433028,-0.107931797,-0.014384194,0.449867044,-0.122611165,0.794448972,0.594825566,0,0,0,-1,-1,339644.216,unknown,2,2023-02-21T15:37:17.356-08:00,2023-02-14T17:43:35.488-08:00,40902,1.273604,0.6718748,1.938066,30356.48,78,100,2023-02-21T15:37:17.356-08:00,698715437.4,0,-1.029999,99.29601,1,0.51,0
2023-02-21T15:37:18.903-08:00,1677022638,34.0643294,-118.449937,117.457,1.16,0.59,327.9424438,27.21271846,6,14.26776723,-9999,339645.7623,-0.196960449,0.804092407,0.638763428,339645.7473,-2.795760906,-2.934179044,-0.919803062,0.220122486,0.067572728,-0.064607374,-0.063382849,0.023060024,-0.016038537,XArbitraryZVertical,-0.885895907,-0.108086239,-0.01542317,0.450852269,-0.1247885,0.795482278,0.592988372,0,0,0,-1,-1,339644.216,unknown,2,2023-02-21T15:37:17.356-08:00,2023-02-14T17:43:35.488-08:00,40902,1.273604,0.6718748,1.938066,30356.48,78,100,2023-02-21T15:37:17.356-08:00,698715437.4,0,-1.029999,99.29601,1,0.51,0
2023-02-21T15:37:18.939-08:00,1677022638,34.0643294,-118.449937,117.457,1.16,0.59,327.9424438,27.21271846,6,14.26776723,-9999,339645.7973,-0.148849487,0.890914917,0.625030518,339645.7773,-2.787797131,-2.925077646,-0.926997528,0.205508441,0.093779497,-0.114208855,-0.061375335,-0.0210585,0.045368016,XArbitraryZVertical,-0.883880446,-0.108936977,-0.01692327,0.4545346,-0.128947541,0.799821377,0.586223841,0,0,0,-1,-1,339644.216,unknown,2,2023-02-21T15:37:17.356-08:00,2023-02-14T17:43:35.488-08:00,40902,1.273604,0.6718748,1.938066,30356.48,78,100,2023-02-21T15:37:17.356-08:00,698715437.4,0,-1.029999,99.29601,1,0.51,0
2023-02-21T15:37:18.973-08:00,1677022638,34.0643294,-118.449937,117.457,1.16,0.59,327.9424438,27.21271846,6,14.26776723,-9999,339645.8324,-0.053726196,0.992935181,0.703033447,339645.8074,-2.778501599,-2.914801674,-0.92986022,0.08977747,0.007367844,-0.118870683,-0.014400199,0.089378655,0.042395949,XArbitraryZVertical,-0.882676754,-0.11044922,-0.019048116,0.456420804,-0.134449303,0.801536381,0.582634568,0,0,0,-1,-1,339644.216,unknown,2,2023-02-21T15:37:17.356-08:00,2023-02-14T17:43:35.488-08:00,40902,1.273604,0.6718748,1.938066,30356.48,78,100,2023-02-21T15:37:17.356-08:00,698715437.4,0,-1.029999,99.29601,1,0.51,0
2023-02-21T15:37:19.008-08:00,1677022638,34.0643294,-118.449937,117.457,1.16,0.59,327.9424438,27.21271846,6,14.26776723,-9999,339645.8674,-0.033706665,0.988220215,0.666671753,339645.8374,-2.768402204,-2.90803901,-0.934553304,0.304533869,-0.13157174,-0.14849472,0.060960859,0.18487829,0.11947906,XArbitraryZVertical,-0.881062153,-0.112926437,-0.019218707,0.458920145,-0.137514189,0.804333746,0.578045785,0,0,0,-1,-1,339644.216,unknown,2,2023-02-21T15:37:17.356-08:00,2023-02-14T17:43:35.488-08:00,40902,1.273604,0.6718748,1.938066,30356.48,78,100,2023-02-21T15:37:17.356-08:00,698715437.4,0,-1.029999,99.29601,1,0.51,0
2023-02-21T15:37:19.043-08:00,1677022638,34.0643294,-118.449937,117.457,1.16,0.59,327.9424438,27.21271846,6,14.26776723,-9999,339645.9024,0.014785767,1.026687622,0.723403931,339645.8974,-2.751622788,-2.918476585,-0.956797899,0.186111242,-0.681948781,0.04338254,0.104456753,0.178498805,0.161147833,XArbitraryZVertical,-0.875427241,-0.120651624,-0.008314933,0.467975684,-0.127482295,0.817350924,0.56185931,0,0,0,-1,-1,339644.216,unknown,2,2023-02-21T15:37:17.356-08:00,2023-02-14T17:43:35.488-08:00,40902,1.273604,0.6718748,1.938066,30356.48,78,100,2023-02-21T15:37:17.356-08:00,698715437.4,0,-1.029999,99.29601,1,0.51,0
2023-02-21T15:37:19.078-08:00,1677022639,34.06434671,-118.4499502,117.1491,1.6,0.74,327.9424438,28.81397264,6,14.26776723,-9999,339645.9375,0.075332642,0.974868774,0.60774231,339645.9275,-2.75233858,-2.943101189,-0.958753286,-0.062334359,-0.833839476,-0.03611578,0.125745237,0.254842639,0.063433826,XArbitraryZVertical,-0.875085205,-0.125919787,0.002507801,0.467294126,-0.113294072,0.818475902,0.56325984,0,0,0,-1,-1,339644.216,unknown,2,2023-02-21T15:37:17.356-08:00,2023-02-14T17:43:35.488-08:00,40902,1.273604,0.6718748,1.938066,30356.48,78,100,2023-02-21T15:37:17.356-08:00,698715437.4,0,-1.029999,99.29601,1,0.51,0
2023-02-21T15:37:19.113-08:00,1677022639,34.06434671,-118.4499502,117.1491,1.6,0.74,327.9424438,28.81397264,6,14.26776723,-9999,339645.9725,0.058914185,0.628570557,0.640182495,339645.9575,-2.74827259,-2.962507626,-0.953379606,-0.150939792,-0.695086598,-0.136937633,0.2279872,0.103354931,0.013808846,XArbitraryZVertical,-0.875918316,-0.132676439,0.011373476,0.463718315,-0.103124514,0.815376699,0.569671869,0,0,0,-1,-1,339644.216,unknown,2,2023-02-21T15:37:17.356-08:00,2023-02-14T17:43:35.488-08:00,40902,1.273604,0.6718748,1.938066,30356.48,78,100,2023-02-21T15:37:17.356-08:00,698715437.4,0,-1.029999,99.29601,1,0.51,0
2023-02-21T15:37:19.149-08:00,1677022639,34.06434671,-118.4499502,117.1491,1.6,0.74,327.9424438,28.81397264,6,14.26776723,-9999,339646.0075,0.054397583,0.78086853,0.546157837,339645.9875,-2.744629391,-2.978154712,-0.949697079,-0.045366239,-0.609201729,-0.010428592,0.15590474,-0.193152666,0.041868627,XArbitraryZVertical,-0.876350434,-0.138192094,0.018679458,0.461046475,-0.094686456,0.813239276,0.574174285,0,0,0,-1,-1,339644.216,unknown,2,2023-02-21T15:37:17.356-08:00,2023-02-14T17:43:35.488-08:00,40902,1.273604,0.6718748,1.938066,30356.48,78,100,2023-02-21T15:37:17.356-08:00,698715437.4,0,-1.029999,99.29601,1,0.51,0
2023-02-21T15:37:19.184-08:00,1677022639,34.06434671,-118.4499502,117.1491,1.6,0.74,327.9424438,28.81397264,6,14.26776723,-9999,339646.0425,0.057327271,0.652832031,0.570648193,339646.0175,-2.752240234,-3.00300845,-0.946494546,-0.306220889,-0.642662644,0.258978605,0.135145277,-0.030502975,-0.032768846,XArbitraryZVertical,-0.877288312,-0.140813714,0.027495411,0.458018177,-0.080747679,0.811371446,0.578926563,0,0,0,-1,-1,339644.216,unknown,2,2023-02-21T15:37:17.356-08:00,2023-02-14T17:43:35.488-08:00,40902,1.273604,0.6718748,1.938066,30356.48,78,100,2023-02-21T15:37:17.356-08:00,698715437.4,0,-1.029999,99.29601,1,0.51,0
2023-02-21T15:37:19.220-08:00,1677022639,34.06434671,-118.4499502,117.1491,1.6,0.74,327.9424438,28.81397264,6,14.26776723,-9999,339646.0776,-0.037902832,0.95111084,0.622467041,339646.0476,-2.774063345,-3.041080105,-0.932950613,-0.671571314,-0.678669214,0.458790064,0.122266352,-0.116887391,-0.045646906,XArbitraryZVertical,-0.88114044,-0.14079041,0.037965862,0.449809095,-0.059751101,0.80338043,0.592460811,0,0,0,-1,-1,339644.216,unknown,2,2023-02-21T15:37:17.356-08:00,2023-02-14T17:43:35.488-08:00,40902,1.273604,0.6718748,1.938066,30356.48,78,100,2023-02-21T15:37:17.356-08:00,698715437.4,0,-1.029999,99.29601,1,0.51,0
2023-02-21T15:37:19.254-08:00,1677022639,34.06434671,-118.4499502,117.1491,1.6,0.74,327.9424438,28.81397264,6,14.26776723,-9999,339646.1126,-0.151916504,0.696746826,0.504516602,339646.1076,-2.81777523,-3.116263504,-0.925374402,0.236799136,-0.559682786,0.3434425,-0.105630115,0.045544624,-0.026940465,XArbitraryZVertical,-0.883993097,-0.138662407,0.060763097,0.442308274,-0.015234742,0.798846006,0.601342142,0,0,0,-1,-1,339644.216,unknown,2,2023-02-21T15:37:17.356-08:00,2023-02-14T17:43:35.488-08:00,40902,1.273604,0.6718748,1.938066,30356.48,78,100,2023-02-21T15:37:17.356-08:00,698715437.4,0,-1.029999,99.29601,1,0.51,0
2023-02-21T15:37:19.289-08:00,1677022639,34.06434671,-118.4499502,117.1491,1.6,0.74,327.9424438,28.81397264,6,14.26776723,-9999,339646.1476,-0.131851196,0.624771118,0.381286621,339646.1376,-2.831912507,3.140699886,-0.92720254,-0.128732815,-0.427595466,0.238524392,-0.155717611,-0.15138495,-0.146658838,XArbitraryZVertical,-0.883715983,-0.1381408,0.0693583,0.441760692,0.000535726,0.799944401,0.600073636,0,0,0,-1,-1,339644.216,unknown,2,2023-02-21T15:37:17.356-08:00,2023-02-14T17:43:35.488-08:00,40902,1.273604,0.6718748,1.938066,30356.48,78,100,2023-02-21T15:37:17.356-08:00,698715437.4,0,-1.029999,99.29601,1,0.51,0
2023-02-21T15:37:19.324-08:00,1677022639,34.06434671,-118.4499502,117.1491,1.6,0.74,327.9424438,28.81397264,6,14.26776723,-9999,339646.1827,-0.107299805,0.654022217,0.356613159,339646.1677,-2.843325939,3.119463316,-0.921471242,-0.213551253,-0.381497681,0.197946593,-0.121915162,-0.17906028,-0.260110259,XArbitraryZVertical,-0.88499821,-0.137944562,0.075856906,0.438172621,0.013379392,0.79649204,0.604501069,0,0,0,-1,-1,339644.216,unknown,2,2023-02-21T15:37:17.356-08:00,2023-02-14T17:43:35.488-08:00,40902,1.273604,0.6718748,1.938066,30356.48,78,100,2023-02-21T15:37:17.356-08:00,698715437.4,0,-1.029999,99.29601,1,0.51,0
2023-02-21T15:37:19.359-08:00,1677022639,34.06434671,-118.4499502,117.1491,1.6,0.74,327.9424438,28.81397264,6,14.26776723,-9999,339646.2177,-0.121459961,0.655380249,0.506195068,339646.1977,-2.850902979,3.102987446,-0.91650366,-0.12889576,-0.311943859,0.124985784,-0.135748118,-0.129751921,-0.216771901,XArbitraryZVertical,-0.885969064,-0.138315074,0.081187213,0.435127934,0.023489214,0.793478608,0.608144462,0,0,0,-1,-1,339644.216,unknown,2,2023-02-21T15:37:17.356-08:00,2023-02-14T17:43:35.488-08:00,40902,1.273604,0.6718748,1.938066,30356.48,78,100,2023-02-21T15:37:17.356-08:00,698715437.4,0,-1.029999,99.29601,1,0.51,0
2023-02-21T15:37:19.394-08:00,1677022639,34.06434671,-118.4499502,117.1491,1.6,0.74,327.9424438,28.81397264,6,14.26776723,-9999,339646.2527,-0.063781738,0.839782715,0.402435303,339646.2277,-2.857268777,3.089756664,-0.913877479,0.042410646,-0.224934906,0.156379789,-0.153100967,-0.136497438,-0.103664458,XArbitraryZVertical,-0.886435894,-0.13842362,0.085511996,0.433310423,0.03164101,0.791877568,0.609859407,0,0,0,-1,-1,339644.216,unknown,2,2023-02-21T15:37:17.356-08:00,2023-02-14T17:43:35.488-08:00,40902,1.273604,0.6718748,1.938066,30356.48,78,100,2023-02-21T15:37:17.356-08:00,698715437.4,0,-1.029999,99.29601,1,0.51,0
2023-02-21T15:37:19.429-08:00,1677022639,34.06434671,-118.4499502,117.1491,1.6,0.74,327.9424438,28.81397264,6,14.26776723,-9999,339646.2877,-0.028915405,0.897109985,0.336288452,339646.2577,-2.865720509,3.076877403,-0.918269904,0.229632407,-0.216691762,0.188216761,-0.125021785,0.046878219,-0.170896411,XArbitraryZVertical,-0.885485461,-0.137395928,0.089629967,0.434746109,0.039267376,0.794552326,0.605924308,0,0,0,-1,-1,339644.216,unknown,2,2023-02-21T15:37:17.356-08:00,2023-02-14T17:43:35.488-08:00,40902,1.273604,0.6718748,1.938066,30356.48,78,100,2023-02-21T15:37:17.356-08:00,698715437.4,0,-1.029999,99.29601,1,0.51,0
2023-02-21T15:37:19.464-08:00,1677022639,34.06434671,-118.4499502,117.1491,1.6,0.74,327.9424438,28.81397264,6,14.26776723,-9999,339646.3228,0.036697388,0.846450806,0.571609497,339646.3178,-2.892359845,3.035680985,-0.93424607,0.573506474,-0.346102059,0.317856193,-0.083804451,0.023897529,-0.133208275,XArbitraryZVertical,-0.881739057,-0.134473647,0.102787542,0.440326826,0.062838875,0.804151177,0.591093838,0,0,0,-1,-1,339644.216,unknown,2,2023-02-21T15:37:17.356-08:00,2023-02-14T17:43:35.488-08:00,40902,1.273604,0.6718748,1.938066,30356.48,78,100,2023-02-21T15:37:17.356-08:00,698715437.4,0,-1.029999,99.29601,1,0.51,0
2023-02-21T15:37:19.499-08:00,1677022639,34.06434671,-118.4499502,117.1491,1.6,0.74,327.9424438,28.81397264,6,14.26776723,-9999,339646.3578,0.134674072,1.013412476,0.324966431,339646.3478,-2.919027133,3.002594355,-0.957479016,1.164178371,-0.450236589,0.570435941,0.017740667,0.174627602,-0.050027966,XArbitraryZVertical,-0.876404211,-0.130122165,0.112289275,0.449861191,0.079747766,0.817743123,0.570032239,0,0,0,-1,-1,339644.216,unknown,2,2023-02-21T15:37:17.356-08:00,2023-02-14T17:43:35.488-08:00,40902,1.273604,0.6718748,1.938066,30356.48,78,100,2023-02-21T15:37:17.356-08:00,698715437.4,0,-1.029999,99.29601,1,0.51,0
2023-02-21T15:37:19.534-08:00,1677022639,34.06434671,-118.4499502,117.1491,1.6,0.74,327.9424438,28.81397264,6,14.26776723,-9999,339646.3928,0.142913818,0.777755737,0.334991455,339646.3778,-2.96840575,2.942858434,-0.997990669,1.672324181,-0.857548714,0.826411188,0.052571699,0.244500995,-0.264753103,XArbitraryZVertical,-0.866352892,-0.122860384,0.127963578,0.466865373,0.107004717,0.840383649,0.531324029,0,0,0,-1,-1,339644.216,unknown,2,2023-02-21T15:37:17.356-08:00,2023-02-14T17:43:35.488-08:00,40902,1.273604,0.6718748,1.938066,30356.48,78,100,2023-02-21T15:37:17.356-08:00,698715437.4,0,-1.029999,99.29601,1,0.51,0
2023-02-21T15:37:19.569-08:00,1677022639,34.06434671,-118.4499502,117.1491,1.6,0.74,327.9424438,28.81397264,6,14.26776723,-9999,339646.4279,0.224243164,1.012283325,0.512924194,339646.4079,-3.052839447,2.843226049,-1.038977756,1.901166797,-0.948968053,1.42116642,0.012294546,-0.100900114,-0.140015781,XArbitraryZVertical,-0.854312655,-0.111794724,0.15067342,0.484715581,0.149067134,0.861886322,0.484696358,0,0,0,-1,-1,339644.216,unknown,2,2023-02-21T15:37:17.356-08:00,2023-02-14T17:43:35.488-08:00,40902,1.273604,0.6718748,1.938066,30356.48,78,100,2023-02-21T15:37:17.356-08:00,698715437.4,0,-1.029999,99.29601,1,0.51,0
2023-02-21T15:37:19.604-08:00,1677022639,34.06434671,-118.4499502,117.1491,1.6,0.74,327.9424438,28.81397264,6,14.26776723,-9999,339646.4629,0.347473145,1.091491699,0.507736206,339646.4379,3.046034358,2.651685766,-1.106417378,4.630419254,-0.979856014,2.350260019,0.013502032,0.118183255,0.117736518,XArbitraryZVertical,-0.830587741,-0.087850791,0.181757886,0.519008827,0.210741073,0.894099891,0.395187527,0,0,0,-1,-1,339644.216,unknown,2,2023-02-21T15:37:17.356-08:00,2023-02-14T17:43:35.488-08:00,40902,1.273604,0.6718748,1.938066,30356.48,78,100,2023-02-21T15:37:17.356-08:00,698715437.4,0,-1.029999,99.29601,1,0.51,0
2023-02-21T15:37:19.639-08:00,1677022639,34.06434671,-118.4499502,117.1491,1.6,0.74,327.9424438,28.81397264,6,14.26776723,-9999,339646.4979,0.482467651,0.911376953,0.493469238,339646.4679,2.644543719,2.25729408,-1.177859812,4.401864052,-0.869095802,3.04560709,0.03865993,0.17014426,0.166926235,XArbitraryZVertical,-0.7869415,-0.045507885,0.221376087,0.574146826,0.296163648,0.923788667,0.242695779,0,0,0,-1,-1,339644.216,unknown,2,2023-02-21T15:37:17.356-08:00,2023-02-14T17:43:35.488-08:00,40902,1.273604,0.6718748,1.938066,30356.48,78,100,2023-02-21T15:37:17.356-08:00,698715437.4,0,-1.029999,99.29601,1,0.51,0
2023-02-21T15:37:19.674-08:00,1677022639,34.06434671,-118.4499502,117.1491,1.6,0.74,327.9424438,28.81397264,6,14.26776723,-9999,339646.533,0.526535034,1.139648438,0.208526611,339646.528,2.013094167,1.693392875,-1.070262568,4.980469227,1.337892771,3.295479774,-0.084339499,0.249733448,0.221205711,XArbitraryZVertical,-0.725152014,0.059140439,0.277229155,0.627535627,0.476292014,0.877326548,0.05868607,0,0,0,-1,-1,339644.216,unknown,2,2023-02-21T15:37:17.356-08:00,2023-02-14T17:43:35.488-08:00,40902,1.273604,0.6718748,1.938066,30356.48,78,100,2023-02-21T15:37:17.356-08:00,698715437.4,0,-1.029999,99.29601,1,0.51,0
2023-02-21T15:37:19.709-08:00,1677022639,34.06434671,-118.4499502,117.1491,1.6,0.74,327.9424438,28.81397264,6,14.26776723,-9999,339646.568,0.864715576,1.350067139,0.342208862,339646.558,1.677992522,1.453967068,-0.975378539,5.737013817,1.842165232,2.791691542,0.044363201,0.409405649,0.448813319,XArbitraryZVertical,-0.670766466,0.131851092,0.282976235,0.672764479,0.557031393,0.827914238,-0.065375276,0,0,0,-1,-1,339644.216,unknown,2,2023-02-21T15:37:17.356-08:00,2023-02-14T17:43:35.488-08:00,40902,1.273604,0.6718748,1.938066,30356.48,78,100,2023-02-21T15:37:17.356-08:00,698715437.4,0,-1.029999,99.29601,1,0.51,0
2023-02-21T15:37:19.744-08:00,1677022639,34.06434671,-118.4499502,117.1491,1.6,0.74,327.9424438,28.81397264,6,14.26776723,-9999,339646.603,0.970123291,1.032028198,-0.159759521,339646.588,1.424780277,1.311948433,-0.868859089,5.734438896,1.944484115,2.212703943,0.364765584,0.606936336,0.390756428,XArbitraryZVertical,-0.614067742,0.20070405,0.275584845,0.711822719,0.624186933,0.76359278,-0.165277392,0,0,0,-1,-1,339644.216,unknown,2,2023-02-21T15:37:17.356-08:00,2023-02-14T17:43:35.488-08:00,40902,1.273604,0.6718748,1.938066,30356.48,78,100,2023-02-21T15:37:17.356-08:00,698715437.4,0,-1.029999,99.29601,1,0.51,0
2023-02-21T15:37:19.779-08:00,1677022639,34.06434671,-118.4499502,117.1491,1.6,0.74,327.9424438,28.81397264,6,14.26776723,-9999,339646.638,0.822723389,0.271347046,-0.260696411,339646.618,1.229794221,1.224481549,-0.771793025,4.181185722,1.872178793,1.22201705,0.216374516,0.194134355,0.048480511,XArbitraryZVertical,-0.558754475,0.257223529,0.260684336,0.744092152,0.674113095,0.697421372,-0.243258983,0,0,0,-1,-1,339644.216,unknown,2,2023-02-21T15:37:17.356-08:00,2023-02-14T17:43:35.488-08:00,40902,1.273604,0.6718748,1.938066,30356.48,78,100,2023-02-21T15:37:17.356-08:00,698715437.4,0,-1.029999,99.29601,1,0.51,0
2023-02-21T15:37:19.814-08:00,1677022639,34.06434671,-118.4499502,117.1491,1.6,0.74,327.9424438,28.81397264,6,14.26776723,-9999,339646.6731,0.75352478,0.45526123,-0.302368164,339646.648,1.148514559,1.219975362,-0.722279466,0.62464571,1.41259408,0.483856291,0.118122697,-0.389749646,-0.002841473,XArbitraryZVertical,-0.534271358,0.29262023,0.246579422,0.753741441,0.704600632,0.661096692,-0.257855028,0,0,0,-1,-1,339644.216,unknown,2,2023-02-21T15:37:17.356-08:00,2023-02-14T17:43:35.488-08:00,40902,1.273604,0.6718748,1.938066,30356.48,78,100,2023-02-21T15:37:17.356-08:00,698715437.4,0,-1.029999,99.29601,1,0.51,0
2023-02-21T15:37:19.849-08:00,1677022639,34.06434671,-118.4499502,117.1491,1.6,0.74,327.9424438,28.81397264,6,14.26776723,-9999,339646.7081,0.550460815,0.764892578,-0.226013184,339646.6781,1.164129806,1.26719326,-0.723183535,-1.02329731,0.904661,-0.150167286,0.027199328,-0.276383579,-0.072102755,XArbitraryZVertical,-0.542582588,0.305840543,0.23944047,0.744804524,0.715415299,0.661774755,-0.22413139,0,0,0,-1,-1,339644.216,unknown,2,2023-02-21T15:37:17.356-08:00,2023-02-14T17:43:35.488-08:00,40902,1.273604,0.6718748,1.938066,30356.48,78,100,2023-02-21T15:37:17.356-08:00,698715437.4,0,-1.029999,99.29601,1,0.51,0
2023-02-21T15:37:19.884-08:00,1677022639,34.06434671,-118.4499502,117.1491,1.6,0.74,327.9424438,28.81397264,6,14.26776723,-9999,339646.7431,0.28213501,0.160430908,-0.430877686,339646.7381,1.223854323,1.322875639,-0.745202151,-0.32660979,-0.103112526,0.28600046,-0.34228611,0.162730396,-0.154413998,XArbitraryZVertical,-0.563783255,0.303272332,0.239161293,0.730052191,0.712479532,0.678120375,-0.180348665,0,0,0,-1,-1,339644.216,unknown,2,2023-02-21T15:37:17.356-08:00,2023-02-14T17:43:35.488-08:00,40902,1.273604,0.6718748,1.938066,30356.48,78,100,2023-02-21T15:37:17.356-08:00,698715437.4,0,-1.029999,99.29601,1,0.51,0
2023-02-21T15:37:19.920-08:00,1677022639,34.06434671,-118.4499502,117.1491,1.6,0.74,327.9424438,28.81397264,6,14.26776723,-9999,339646.7782,0.296615601,0.458755493,-0.106307983,339646.7681,1.263233286,1.350120145,-0.751282421,-1.083606005,0.081832364,0.109681204,-0.471545041,-0.354070127,-0.160268769,XArbitraryZVertical,-0.574417987,0.300100357,0.243765799,0.721499812,0.713091612,0.682576537,-0.159967497,0,0,0,-1,-1,339644.216,unknown,2,2023-02-21T15:37:17.356-08:00,2023-02-14T17:43:35.488-08:00,40902,1.273604,0.6718748,1.938066,30356.48,78,100,2023-02-21T15:37:17.356-08:00,698715437.4,0,-1.029999,99.29601,1,0.51,0
2023-02-21T15:37:19.954-08:00,1677022639,34.06434671,-118.4499502,117.1491,1.6,0.74,327.9424438,28.81397264,6,14.26776723,-9999,339646.8132,0.456726074,0.803665161,0.000427246,339646.7982,1.305327927,1.38142297,-0.75321823,-0.864582479,-0.049673006,0.098456807,-0.405277371,-0.20480305,0.118416324,XArbitraryZVertical,-0.585001158,0.298517414,0.249155574,0.711746048,0.716449797,0.683989942,-0.137321994,0,0,0,-1,-1,339644.216,unknown,2,2023-02-21T15:37:17.356-08:00,2023-02-14T17:43:35.488-08:00,40902,1.273604,0.6718748,1.938066,30356.48,78,100,2023-02-21T15:37:17.356-08:00,698715437.4,0,-1.029999,99.29601,1,0.51,0
2023-02-21T15:37:19.990-08:00,1677022639,34.06434671,-118.4499502,117.1491,1.6,0.74,327.9424438,28.81397264,6,14.26776723,-9999,339646.8482,0.372329712,0.678024292,0.006500244,339646.8282,1.332075603,1.396441974,-0.754889745,-0.294055283,-0.014010348,0.038824644,-0.276920497,0.109545588,0.086217359,XArbitraryZVertical,-0.591212572,0.295455037,0.253683461,0.70627091,0.717304289,0.68520838,-0.126348034,0,0,0,-1,-1,339644.216,unknown,2,2023-02-21T15:37:17.356-08:00,2023-02-14T17:43:35.488-08:00,40902,1.273604,0.6718748,1.938066,30356.48,78,100,2023-02-21T15:37:17.356-08:00,698715437.4,0,-1.029999,99.29601,1,0.51,0
2023-02-21T15:37:20.024-08:00,1677022639,34.06434671,-118.4499502,117.1491,1.6,0.74,327.9424438,28.81397264,6,14.26776723,-9999,339646.8832,0.858764648,0.686752319,-0.235733032,339646.8582,1.339103255,1.406704468,-0.747794679,-0.762786925,0.434976995,0.154771253,-0.351011753,-0.001999259,0.126271546,XArbitraryZVertical,-0.592102651,0.299213584,0.255411026,0.70331419,0.723341405,0.680023491,-0.119771361,0,0,0,-1,-1,339646.7782,unknown,2,2023-02-21T15:37:19.918-08:00,2023-02-14T17:43:35.488-08:00,40902,1.273687,1.086115,1.938066,30356.48,78,100,2023-02-21T15:37:19.918-08:00,698715440,0,-0.9500008,99.29464,1,0.51,0
2023-02-21T15:37:20.060-08:00,1677022639,34.06434671,-118.4499502,117.1491,1.6,0.74,327.9424438,28.81397264,6,14.26776723,-9999,339646.9183,0.978240967,0.541503906,-0.302734375,339646.8882,1.394089886,1.450329805,-0.743783476,-1.394001484,-0.122764587,0.404531151,0.137448013,0.012650609,-0.089540116,XArbitraryZVertical,-0.605191155,0.299206316,0.262795203,0.689316936,0.730578601,0.677077055,-0.088438496,0,0,0,-1,-1,339646.7782,unknown,2,2023-02-21T15:37:19.918-08:00,2023-02-14T17:43:35.488-08:00,40902,1.273687,1.086115,1.938066,30356.48,78,100,2023-02-21T15:37:19.918-08:00,698715440,0,-0.9500008,99.29464,1,0.51,0
2023-02-21T15:37:20.094-08:00,1677022640,34.06436395,-118.4499619,117.4453,1.6,0.93,329.5882568,39.03230446,6,14.26776723,-9999,339646.9533,1.094696045,0.867935181,-0.110015869,339646.9483,1.562081452,1.527211959,-0.70735848,-2.603923321,-0.866191328,1.151296139,0.253122449,0.068814933,-0.239374399,XArbitraryZVertical,-0.634394413,0.284578892,0.306971929,0.6498668,0.7593593,0.649828255,-0.033117168,0,0,0,-1,-1,339646.7782,unknown,2,2023-02-21T15:37:19.918-08:00,2023-02-14T17:43:35.488-08:00,40902,1.273687,1.086115,1.938066,30356.48,78,100,2023-02-21T15:37:19.918-08:00,698715440,0,-0.9500008,99.29464,1,0.51,0
2023-02-21T15:37:20.130-08:00,1677022640,34.06436395,-118.4499619,117.4453,1.6,0.93,329.5882568,39.03230446,6,14.26776723,-9999,339646.9883,1.182876587,1.744796753,0.372528076,339646.9783,1.654607974,1.560659268,-0.673034666,-1.663182974,-0.73668766,1.153750181,0.327252686,0.390249074,0.163794875,XArbitraryZVertical,-0.647654451,0.276731866,0.336560453,0.625052267,0.781893492,0.623361766,-0.007926372,0,0,0,-1,-1,339646.7782,unknown,2,2023-02-21T15:37:19.918-08:00,2023-02-14T17:43:35.488-08:00,40902,1.273687,1.086115,1.938066,30356.48,78,100,2023-02-21T15:37:19.918-08:00,698715440,0,-0.9500008,99.29464,1,0.51,0
2023-02-21T15:37:20.165-08:00,1677022640,34.06436395,-118.4499619,117.4453,1.6,0.93,329.5882568,39.03230446,6,14.26776723,-9999,339647.0234,0.934326172,1.251846313,0.438583374,339647.0083,1.653731433,1.543767844,-0.640562378,1.791239738,-0.304393232,0.877246916,0.290986121,1.091623545,0.427551448,XArbitraryZVertical,-0.639899631,0.282302335,0.351763233,0.622170692,0.801466823,0.597646415,-0.021667708,0,0,0,-1,-1,339646.7782,unknown,2,2023-02-21T15:37:19.918-08:00,2023-02-14T17:43:35.488-08:00,40902,1.273687,1.086115,1.938066,30356.48,78,100,2023-02-21T15:37:19.918-08:00,698715440,0,-0.9500008,99.29464,1,0.51,0
2023-02-21T15:37:20.200-08:00,1677022640,34.06436395,-118.4499619,117.4453,1.6,0.93,329.5882568,39.03230446,6,14.26776723,-9999,339647.0584,0.818481445,0.768981934,-0.273529053,339647.0384,1.558676363,1.48589754,-0.619123988,2.839445353,0.127344251,0.252345651,0.103905559,0.546875238,0.406963229,XArbitraryZVertical,-0.612431543,0.300664072,0.346399417,0.643844768,0.811453819,0.580321968,-0.069057442,0,0,0,-1,-1,339646.7782,unknown,2,2023-02-21T15:37:19.918-08:00,2023-02-14T17:43:35.488-08:00,40902,1.273687,1.086115,1.938066,30356.48,78,100,2023-02-21T15:37:19.918-08:00,698715440,0,-0.9500008,99.29464,1,0.51,0
2023-02-21T15:37:20.235-08:00,1677022640,34.06436395,-118.4499619,117.4453,1.6,0.93,329.5882568,39.03230446,6,14.26776723,-9999,339647.0934,0.839370728,0.731079102,-0.172744751,339647.0684,1.454887039,1.427089405,-0.611356841,2.437075615,0.207631961,-0.324304402,0.008052468,0.195002854,-0.156256452,XArbitraryZVertical,-0.584986816,0.31488742,0.332324081,0.669475267,0.810429096,0.57397908,-0.117272675,0,0,0,-1,-1,339646.7782,unknown,2,2023-02-21T15:37:19.918-08:00,2023-02-14T17:43:35.488-08:00,40902,1.273687,1.086115,1.938066,30356.48,78,100,2023-02-21T15:37:19.918-08:00,698715440,0,-0.9500008,99.29464,1,0.51,0
2023-02-21T15:37:20.270-08:00,1677022640,34.06436395,-118.4499619,117.4453,1.6,0.93,329.5882568,39.03230446,6,14.26776723,-9999,339647.1284,0.813476563,0.629623413,-0.080535889,339647.0984,1.386824645,1.386100972,-0.617574866,1.52358973,-0.296760082,-0.658896923,0.088168502,0.131618261,0.010503441,XArbitraryZVertical,-0.568843577,0.318676383,0.319131069,0.687762674,0.801418781,0.57905966,-0.149724692,0,0,0,-1,-1,339646.7782,unknown,2,2023-02-21T15:37:19.918-08:00,2023-02-14T17:43:35.488-08:00,40902,1.273687,1.086115,1.938066,30356.48,78,100,2023-02-21T15:37:19.918-08:00,698715440,0,-0.9500008,99.29464,1,0.51,0
2023-02-21T15:37:20.304-08:00,1677022640,34.06436395,-118.4499619,117.4453,1.6,0.93,329.5882568,39.03230446,6,14.26776723,-9999,339647.1635,0.700958252,0.219543457,-0.171661377,339647.1585,1.249999964,1.27223435,-0.636662564,1.480139136,-0.692230642,-0.902338564,-0.031543136,-0.26581037,0.134055495,XArbitraryZVertical,-0.534301701,0.310262069,0.296224222,0.728361388,0.768512011,0.594515204,-0.236518279,0,0,0,-1,-1,339646.7782,unknown,2,2023-02-21T15:37:19.918-08:00,2023-02-14T17:43:35.488-08:00,40902,1.273687,1.086115,1.938066,30356.48,78,100,2023-02-21T15:37:19.918-08:00,698715440,0,-0.9500008,99.29464,1,0.51,0
2023-02-21T15:37:20.340-08:00,1677022640,34.06436395,-118.4499619,117.4453,1.6,0.93,329.5882568,39.03230446,6,14.26776723,-9999,339647.1985,0.56980896,0.303482056,-0.202163696,339647.1885,1.19958929,1.221498698,-0.654460198,0.76498419,-0.660680532,-0.974845409,-0.102431357,-0.393109143,0.084176123,XArbitraryZVertical,-0.52389053,0.299627993,0.285733789,0.74439096,0.745467186,0.608731091,-0.271523565,0,0,0,-1,-1,339646.7782,unknown,2,2023-02-21T15:37:19.918-08:00,2023-02-14T17:43:35.488-08:00,40902,1.273687,1.086115,1.938066,30356.48,78,100,2023-02-21T15:37:19.918-08:00,698715440,0,-0.9500008,99.29464,1,0.51,0
2023-02-21T15:37:20.375-08:00,1677022640,34.06436395,-118.4499619,117.4453,1.6,0.93,329.5882568,39.03230446,6,14.26776723,-9999,339647.2335,0.547973633,0.279052734,-0.351791382,339647.2185,1.161941587,1.178925497,-0.671240048,0.771198869,-0.44222635,-0.771470785,-0.150496304,-0.234277546,0.076359242,XArbitraryZVertical,-0.516937576,0.288521895,0.277707002,0.756577412,0.723692656,0.621957481,-0.299061328,0,0,0,-1,-1,339646.7782,unknown,2,2023-02-21T15:37:19.918-08:00,2023-02-14T17:43:35.488-08:00,40902,1.273687,1.086115,1.938066,30356.48,78,100,2023-02-21T15:37:19.918-08:00,698715440,0,-0.9500008,99.29464,1,0.51,0
2023-02-21T15:37:20.410-08:00,1677022640,34.06436395,-118.4499619,117.4453,1.6,0.93,329.5882568,39.03230446,6,14.26776723,-9999,339647.2686,0.338470459,0.1746521,-0.270431519,339647.2485,1.129363419,1.145292161,-0.684707274,0.213943586,-0.396043986,-0.737506509,-0.178494811,-0.440765381,-0.029135823,XArbitraryZVertical,-0.511494426,0.280183642,0.270007894,0.766137266,0.705533326,0.632446289,-0.31974116,0,0,0,-1,-1,339646.7782,unknown,2,2023-02-21T15:37:19.918-08:00,2023-02-14T17:43:35.488-08:00,40902,1.273687,1.086115,1.938066,30356.48,78,100,2023-02-21T15:37:19.918-08:00,698715440,0,-0.9500008,99.29464,1,0.51,0
2023-02-21T15:37:20.445-08:00,1677022640,34.06436395,-118.4499619,117.4453,1.6,0.93,329.5882568,39.03230446,6,14.26776723,-9999,339647.3036,0.360870361,0.316574097,-0.328598022,339647.2786,1.122266859,1.132894686,-0.703058642,-0.158461839,-0.086465038,-0.474805564,-0.352416158,-0.471902013,0.053055108,XArbitraryZVertical,-0.514104098,0.271944217,0.265125535,0.769058994,0.690886557,0.646554053,-0.323486626,0,0,0,-1,-1,339646.7782,unknown,2,2023-02-21T15:37:19.918-08:00,2023-02-14T17:43:35.488-08:00,40902,1.273687,1.086115,1.938066,30356.48,78,100,2023-02-21T15:37:19.918-08:00,698715440,0,-0.9500008,99.29464,1,0.51,0
2023-02-21T15:37:20.482-08:00,1677022640,34.06436395,-118.4499619,117.4453,1.6,0.93,329.5882568,39.03230446,6,14.26776723,-9999,339647.3386,0.630508423,0.549133301,-0.630462646,339647.3086,1.114314581,1.128756037,-0.710896578,0.252943933,0.146237522,-0.189200476,-0.346515417,-0.341600478,0.040473849,XArbitraryZVertical,-0.514728364,0.270133444,0.26085127,0.770739286,0.684939981,0.652513444,-0.324165255,0,0,0,-1,-1,339646.7782,unknown,2,2023-02-21T15:37:19.918-08:00,2023-02-14T17:43:35.488-08:00,40902,1.273687,1.086115,1.938066,30356.48,78,100,2023-02-21T15:37:19.918-08:00,698715440,0,-0.9500008,99.29464,1,0.51,0
2023-02-21T15:37:20.515-08:00,1677022640,34.06436395,-118.4499619,117.4453,1.6,0.93,329.5882568,39.03230446,6,14.26776723,-9999,339647.3736,0.630325317,0.650100708,-0.473327637,339647.3686,1.117870342,1.133522207,-0.718464566,-0.293179423,-0.032614257,-0.078449316,-0.038490593,-0.031642735,-0.268254727,XArbitraryZVertical,-0.51798995,0.268864372,0.258786844,0.769693188,0.681984127,0.65822953,-0.318796724,0,0,0,-1,-1,339646.7782,unknown,2,2023-02-21T15:37:19.918-08:00,2023-02-14T17:43:35.488-08:00,40902,1.273687,1.086115,1.938066,30356.48,78,100,2023-02-21T15:37:19.918-08:00,698715440,0,-0.9500008,99.29464,1,0.51,0
2023-02-21T15:37:20.553-08:00,1677022640,34.06436395,-118.4499619,117.4453,1.6,0.93,329.5882568,39.03230446,6,14.26776723,-9999,339647.4087,0.867721558,1.241668701,-0.384811401,339647.3987,1.122282133,1.137876256,-0.725174664,0.069085829,0.102832377,-0.284962326,-0.006337047,0.30192852,-0.052551806,XArbitraryZVertical,-0.521046831,0.267447247,0.25739166,0.768590751,0.679341197,0.663266182,-0.313964337,0,0,0,-1,-1,339646.7782,unknown,2,2023-02-21T15:37:19.918-08:00,2023-02-14T17:43:35.488-08:00,40902,1.273687,1.086115,1.938066,30356.48,78,100,2023-02-21T15:37:19.918-08:00,698715440,0,-0.9500008,99.29464,1,0.51,0
2023-02-21T15:37:20.604-08:00,1677022640,34.06436395,-118.4499619,117.4453,1.6,0.93,329.5882568,39.03230446,6,14.26776723,-9999,339647.4437,0.784225464,0.901611328,-0.447601318,339647.4287,1.101393171,1.124296713,-0.732386764,0.584365189,-0.088634051,-0.569083512,0.220933735,0.584176481,-0.114262313,XArbitraryZVertical,-0.518591087,0.265556345,0.250763718,0.773085098,0.670682967,0.668646276,-0.321086228,0,0,0,-1,-1,339646.7782,unknown,2,2023-02-21T15:37:19.918-08:00,2023-02-14T17:43:35.488-08:00,40902,1.273687,1.086115,1.938066,30356.48,78,100,2023-02-21T15:37:19.918-08:00,698715440,0,-0.9500008,99.29464,1,0.51,0
2023-02-21T15:37:20.621-08:00,1677022640,34.06436395,-118.4499619,117.4453,1.6,0.93,329.5882568,39.03230446,6,14.26776723,-9999,339647.4787,0.823242188,0.874801636,-0.610900879,339647.4587,1.073934932,1.100435778,-0.741691811,0.518875241,-0.19412066,-0.439353943,0.089615226,0.234650373,-0.14735949,XArbitraryZVertical,-0.514725691,0.2607228,0.243571622,0.779585768,0.657256722,0.675536275,-0.334162176,0,0,0,-1,-1,339646.7782,unknown,2,2023-02-21T15:37:19.918-08:00,2023-02-14T17:43:35.488-08:00,40902,1.273687,1.086115,1.938066,30356.48,78,100,2023-02-21T15:37:19.918-08:00,698715440,0,-0.9500008,99.29464,1,0.51,0
2023-02-21T15:37:20.655-08:00,1677022640,34.06436395,-118.4499619,117.4453,1.6,0.93,329.5882568,39.03230446,6,14.26776723,-9999,339647.5138,1.004608154,0.727981567,-0.447143555,339647.4887,1.051433824,1.079230872,-0.741469633,0.424800992,-0.257276922,-0.102573566,0.173086286,0.199429154,-0.262807071,XArbitraryZVertical,-0.509175436,0.258250712,0.240261573,0.785061345,0.650155902,0.675372481,-0.348093897,0,0,0,-1,-1,339646.7782,unknown,2,2023-02-21T15:37:19.918-08:00,2023-02-14T17:43:35.488-08:00,40902,1.273687,1.086115,1.938066,30356.48,78,100,2023-02-21T15:37:19.918-08:00,698715440,0,-0.9500008,99.29464,1,0.51,0
2023-02-21T15:37:20.690-08:00,1677022640,34.06436395,-118.4499619,117.4453,1.6,0.93,329.5882568,39.03230446,6,14.26776723,-9999,339647.5488,0.831314087,0.749923706,-0.013320923,339647.5188,1.043847753,1.067027206,-0.738679818,-0.000570323,-0.254191667,-0.022020001,0.313720286,0.074902236,-0.148430437,XArbitraryZVertical,-0.505892175,0.256160146,0.241168408,0.787586684,0.647507071,0.673312426,-0.356910169,0,0,0,-1,-1,339646.7782,unknown,2,2023-02-21T15:37:19.918-08:00,2023-02-14T17:43:35.488-08:00,40902,1.273687,1.086115,1.938066,30356.48,78,100,2023-02-21T15:37:19.918-08:00,698715440,0,-0.9500008,99.29464,1,0.51,0
2023-02-21T15:37:20.725-08:00,1677022640,34.06436395,-118.4499619,117.4453,1.6,0.93,329.5882568,39.03230446,6,14.26776723,-9999,339647.5838,0.59286499,0.55960083,-0.109008789,339647.5788,1.019445948,1.046211968,-0.73624328,0.773391485,0.220873877,0.055633284,0.03947556,0.086700261,0.348623753,XArbitraryZVertical,-0.499539949,0.254744133,0.237442177,0.793212779,0.641356289,0.671508968,-0.371130526,0,0,0,-1,-1,339646.7782,unknown,2,2023-02-21T15:37:19.918-08:00,2023-02-14T17:43:35.488-08:00,40902,1.273687,1.086115,1.938066,30356.48,78,100,2023-02-21T15:37:19.918-08:00,698715440,0,-0.9500008,99.29464,1,0.51,0
2023-02-21T15:37:20.760-08:00,1677022640,34.06436395,-118.4499619,117.4453,1.6,0.93,329.5882568,39.03230446,6,14.26776723,-9999,339647.6188,0.502120972,0.388076782,-0.055557251,339647.6088,1.007564369,1.047828854,-0.722358987,0.033554465,0.386927217,0.409826547,-0.074180245,-0.258049726,0.193958163,XArbitraryZVertical,-0.493885598,0.262145199,0.236199339,0.794711756,0.649970651,0.661156356,-0.374713808,0,0,0,-1,-1,339646.7782,unknown,2,2023-02-21T15:37:19.918-08:00,2023-02-14T17:43:35.488-08:00,40902,1.273687,1.086115,1.938066,30356.48,78,100,2023-02-21T15:37:19.918-08:00,698715440,0,-0.9500008,99.29464,1,0.51,0
2023-02-21T15:37:20.795-08:00,1677022640,34.06436395,-118.4499619,117.4453,1.6,0.93,329.5882568,39.03230446,6,14.26776723,-9999,339647.6539,0.522445679,0.547241211,-0.138778687,339647.6389,1.021728724,1.070450925,-0.713056178,-0.302000374,0.511515677,0.462671548,-0.154599965,-0.225269735,0.315227717,XArbitraryZVertical,-0.495572908,0.270152323,0.238823706,0.79018239,0.663648307,0.6541484,-0.362850428,0,0,0,-1,-1,339646.7782,unknown,2,2023-02-21T15:37:19.918-08:00,2023-02-14T17:43:35.488-08:00,40902,1.273687,1.086115,1.938066,30356.48,78,100,2023-02-21T15:37:19.918-08:00,698715440,0,-0.9500008,99.29464,1,0.51,0
2023-02-21T15:37:20.830-08:00,1677022640,34.06436395,-118.4499619,117.4453,1.6,0.93,329.5882568,39.03230446,6,14.26776723,-9999,339647.6889,0.535766602,0.379592896,-0.246658325,339647.6689,1.041694012,1.099370601,-0.70365956,-0.317664921,0.513725579,0.54511106,-0.162723303,-0.109262168,0.180330753,XArbitraryZVertical,-0.498924264,0.279162817,0.24215804,0.783901938,0.679309607,0.647012353,-0.346285403,0,0,0,-1,-1,339646.7782,unknown,2,2023-02-21T15:37:19.918-08:00,2023-02-14T17:43:35.488-08:00,40902,1.273687,1.086115,1.938066,30356.48,78,100,2023-02-21T15:37:19.918-08:00,698715440,0,-0.9500008,99.29464,1,0.51,0
2023-02-21T15:37:20.865-08:00,1677022640,34.06436395,-118.4499619,117.4453,1.6,0.93,329.5882568,39.03230446,6,14.26776723,-9999,339647.7239,0.648025513,0.510299683,-0.189590454,339647.6989,1.071553017,1.132530611,-0.696652119,-1.012272596,0.396459877,0.551441669,-0.158738613,-0.262060702,0.078830868,XArbitraryZVertical,-0.505116401,0.286553294,0.247494956,0.775558336,0.694505095,0.641653478,-0.325489253,0,0,0,-1,-1,339646.7782,unknown,2,2023-02-21T15:37:19.918-08:00,2023-02-14T17:43:35.488-08:00,40902,1.273687,1.086115,1.938066,30356.48,78,100,2023-02-21T15:37:19.918-08:00,698715440,0,-0.9500008,99.29464,1,0.51,0
2023-02-21T15:37:20.900-08:00,1677022640,34.06436395,-118.4499619,117.4453,1.6,0.93,329.5882568,39.03230446,6,14.26776723,-9999,339647.759,0.618438721,0.486740112,-0.137969971,339647.7289,1.12189526,1.176232404,-0.696560807,-1.147649765,0.322000086,0.46621567,-0.079362512,-0.175702214,0.089903444,XArbitraryZVertical,-0.517852924,0.290514316,0.255709056,0.762917123,0.708116055,0.641583443,-0.294859558,0,0,0,-1,-1,339646.7782,unknown,2,2023-02-21T15:37:19.918-08:00,2023-02-14T17:43:35.488-08:00,40902,1.273687,1.086115,1.938066,30356.48,78,100,2023-02-21T15:37:19.918-08:00,698715440,0,-0.9500008,99.29464,1,0.51,0
2023-02-21T15:37:20.935-08:00,1677022640,34.06436395,-118.4499619,117.4453,1.6,0.93,329.5882568,39.03230446,6,14.26776723,-9999,339647.794,0.636428833,0.802734375,-0.088485718,339647.789,1.217182225,1.259778493,-0.704079711,-0.760278463,0.468945384,0.163247928,-0.103965223,-0.010232508,0.136180222,XArbitraryZVertical,-0.544728677,0.294350683,0.267016922,0.738464774,0.725638747,0.647332668,-0.233256683,0,0,0,-1,-1,339646.7782,unknown,2,2023-02-21T15:37:19.918-08:00,2023-02-14T17:43:35.488-08:00,40902,1.273687,1.086115,1.938066,30356.48,78,100,2023-02-21T15:37:19.918-08:00,698715440,0,-0.9500008,99.29464,1,0.51,0
2023-02-21T15:37:20.970-08:00,1677022640,34.06436395,-118.4499619,117.4453,1.6,0.93,329.5882568,39.03230446,6,14.26776723,-9999,339647.829,0.591552734,0.58291626,-0.263687134,339647.819,1.227992424,1.279295342,-0.704643875,0.109492958,0.351130813,0.013901082,-0.072262704,0.167331338,0.043424144,XArbitraryZVertical,-0.549070399,0.298410295,0.265486358,0.734159304,0.729702771,0.647762537,-0.21894598,0,0,0,-1,-1,339646.7782,unknown,2,2023-02-21T15:37:19.918-08:00,2023-02-14T17:43:35.488-08:00,40902,1.273687,1.086115,1.938066,30356.48,78,100,2023-02-21T15:37:19.918-08:00,698715440,0,-0.9500008,99.29464,1,0.51,0
2023-02-21T15:37:21.005-08:00,1677022640,34.06436395,-118.4499619,117.4453,1.6,0.93,329.5882568,39.03230446,6,14.26776723,-9999,339647.864,0.499099731,0.47277832,-0.250030518,339647.849,1.225121574,1.286104824,-0.702921264,-0.050822362,0.260030597,0.113145448,-0.182579398,-0.099696398,-0.080896199,XArbitraryZVertical,-0.549111564,0.302215012,0.263096039,0.733432366,0.732246697,0.646449268,-0.21428515,0,0,0,-1,-1,339646.7782,unknown,2,2023-02-21T15:37:19.918-08:00,2023-02-14T17:43:35.488-08:00,40902,1.273687,1.086115,1.938066,30356.48,78,100,2023-02-21T15:37:19.918-08:00,698715440,0,-0.9500008,99.29464,1,0.51,0
2023-02-21T15:37:21.040-08:00,1677022640,34.06436395,-118.4499619,117.4453,1.6,0.93,329.5882568,39.03230446,6,14.26776723,-9999,339647.8991,0.739074707,0.995697021,-0.221069336,339647.8791,1.238463056,1.303628846,-0.699643706,-0.396466732,0.339470267,0.253181905,-0.224241853,-0.117165983,-0.026536405,XArbitraryZVertical,-0.552644038,0.305932866,0.264163635,0.728839686,0.737928927,0.643945158,-0.201979294,0,0,0,-1,-1,339646.7782,unknown,2,2023-02-21T15:37:19.918-08:00,2023-02-14T17:43:35.488-08:00,40902,1.273687,1.086115,1.938066,30356.48,78,100,2023-02-21T15:37:19.918-08:00,698715440,0,-0.9500008,99.29464,1,0.51,0
2023-02-21T15:37:21.075-08:00,1677022640,34.06436395,-118.4499619,117.4453,1.6,0.93,329.5882568,39.03230446,6,14.26776723,-9999,339647.9341,0.906112671,0.81880188,-0.365844727,339647.9091,1.240534176,1.31304889,-0.693268942,0.45343253,0.18064782,0.097166382,-0.004678428,0.356642067,-0.025007844,XArbitraryZVertical,-0.552656915,0.310708195,0.264299673,0.726757471,0.743753076,0.639054954,-0.196061507,0,0,0,-1,-1,339646.7782,unknown,2,2023-02-21T15:37:19.918-08:00,2023-02-14T17:43:35.488-08:00,40902,1.273687,1.086115,1.938066,30356.48,78,100,2023-02-21T15:37:19.918-08:00,698715440,0,-0.9500008,99.29464,1,0.51,0
2023-02-21T15:37:21.111-08:00,1677022641,34.06438067,-118.449973,117.3437,1.42,0.84,329.5882568,35.9721953,6,14.26776723,-9999,339647.9691,1.036941528,0.923553467,-0.388961792,339647.9391,1.226092707,1.305988351,-0.689361975,0.097413659,-0.063324302,0.006159074,0.13207674,0.229952216,-0.19743906,XArbitraryZVertical,-0.548518481,0.313285165,0.262202304,0.729540746,0.744754195,0.636044979,-0.201959759,0,0,0,-1,-1,339646.7782,unknown,2,2023-02-21T15:37:19.918-08:00,2023-02-14T17:43:35.488-08:00,40902,1.273687,1.086115,1.938066,30356.48,78,100,2023-02-21T15:37:19.918-08:00,698715440,0,-0.9500008,99.29464,1,0.51,0
2023-02-21T15:37:21.145-08:00,1677022641,34.06438067,-118.449973,117.3437,1.42,0.84,329.5882568,35.9721953,6,14.26776723,-9999,339648.0042,1.238250732,1.373901367,-0.516082764,339647.9992,1.202642876,1.261845888,-0.687984331,0.809013367,-0.84740895,0.023415823,0.041240394,0.321408987,0.121170044,XArbitraryZVertical,-0.538723302,0.303858969,0.26601412,0.739380366,0.735950708,0.634981334,-0.234893858,0,0,0,-1,-1,339646.7782,unknown,2,2023-02-21T15:37:19.918-08:00,2023-02-14T17:43:35.488-08:00,40902,1.273687,1.086115,1.938066,30356.48,78,100,2023-02-21T15:37:19.918-08:00,698715440,0,-0.9500008,99.29464,1,0.51,0
2023-02-21T15:37:21.180-08:00,1677022641,34.06438067,-118.449973,117.3437,1.42,0.84,329.5882568,35.9721953,6,14.26776723,-9999,339648.0392,1.08454895,1.304107666,-0.330215454,339648.0292,1.169705844,1.221130671,-0.687707721,0.928212523,-0.826888561,-0.782728195,0.502616584,0.687772632,-0.132257164,XArbitraryZVertical,-0.528295125,0.297567652,0.264695889,0.749862559,0.725944757,0.634767592,-0.264715493,0,0,0,-1,-1,339646.7782,unknown,2,2023-02-21T15:37:19.918-08:00,2023-02-14T17:43:35.488-08:00,40902,1.273687,1.086115,1.938066,30356.48,78,100,2023-02-21T15:37:19.918-08:00,698715440,0,-0.9500008,99.29464,1,0.51,0
2023-02-21T15:37:21.215-08:00,1677022641,34.06438067,-118.449973,117.3437,1.42,0.84,329.5882568,35.9721953,6,14.26776723,-9999,339648.0742,0.942993164,0.216094971,-0.271743774,339648.0592,1.108941116,1.15693553,-0.697641604,1.416872025,-0.839936972,-0.876770437,0.301300585,0.308713973,0.019599736,XArbitraryZVertical,-0.513825324,0.286162369,0.25541131,0.767371976,0.70165956,0.642412126,-0.308189273,0,0,0,-1,-1,339646.7782,unknown,2,2023-02-21T15:37:19.918-08:00,2023-02-14T17:43:35.488-08:00,40902,1.273687,1.086115,1.938066,30356.48,78,100,2023-02-21T15:37:19.918-08:00,698715440,0,-0.9500008,99.29464,1,0.51,0
2023-02-21T15:37:21.250-08:00,1677022641,34.06438067,-118.449973,117.3437,1.42,0.84,329.5882568,35.9721953,6,14.26776723,-9999,339648.1092,0.760650635,0.135101318,-0.338424683,339648.0892,1.05655612,1.098615083,-0.708444659,0.617071569,-0.779291689,-0.991880655,0.229891002,-0.515552223,0.073337346,XArbitraryZVertical,-0.50232733,0.273813986,0.246797769,0.782166116,0.676282585,0.650653481,-0.345386297,0,0,0,-1,-1,339646.7782,unknown,2,2023-02-21T15:37:19.918-08:00,2023-02-14T17:43:35.488-08:00,40902,1.273687,1.086115,1.938066,30356.48,78,100,2023-02-21T15:37:19.918-08:00,698715440,0,-0.9500008,99.29464,1,0.51,0
2023-02-21T15:37:21.285-08:00,1677022641,34.06438067,-118.449973,117.3437,1.42,0.84,329.5882568,35.9721953,6,14.26776723,-9999,339648.1443,0.53692627,0.176589966,-0.515975952,339648.1193,1.033001926,1.061809973,-0.727528187,-0.014995974,-0.630971134,-0.594127715,0.108497977,-0.529924452,0.025495082,XArbitraryZVertical,-0.500472314,0.259937585,0.241351869,0.78975249,0.652152538,0.665025651,-0.363919824,0,0,0,-1,-1,339646.7782,unknown,2,2023-02-21T15:37:19.918-08:00,2023-02-14T17:43:35.488-08:00,40902,1.273687,1.086115,1.938066,30356.48,78,100,2023-02-21T15:37:19.918-08:00,698715440,0,-0.9500008,99.29464,1,0.51,0
2023-02-21T15:37:21.320-08:00,1677022641,34.06438067,-118.449973,117.3437,1.42,0.84,329.5882568,35.9721953,6,14.26776723,-9999,339648.1793,0.485397339,0.080337524,-0.35395813,339648.1493,1.030552602,1.042925992,-0.739686321,-0.249171719,-0.521163285,-0.123817571,-0.082162976,-0.50207454,-0.151658267,XArbitraryZVertical,-0.501608005,0.249709482,0.241704857,0.792220436,0.638132095,0.674056232,-0.37206918,0,0,0,-1,-1,339646.7782,unknown,2,2023-02-21T15:37:19.918-08:00,2023-02-14T17:43:35.488-08:00,40902,1.273687,1.086115,1.938066,30356.48,78,100,2023-02-21T15:37:19.918-08:00,698715440,0,-0.9500008,99.29464,1,0.51,0
2023-02-21T15:37:21.355-08:00,1677022641,34.06438067,-118.449973,117.3437,1.42,0.84,329.5882568,35.9721953,6,14.26776723,-9999,339648.2143,0.389282227,0.24357605,-0.188369751,339648.2093,1.155392337,1.096162368,-0.765279214,-2.915913343,-0.600263059,0.720662653,-0.227452099,-0.535008371,0.081255794,XArbitraryZVertical,-0.53093245,0.230899114,0.26942414,0.769549856,0.641468823,0.692738414,-0.329592675,0,0,0,-1,-1,339646.7782,unknown,2,2023-02-21T15:37:19.918-08:00,2023-02-14T17:43:35.488-08:00,40902,1.273687,1.086115,1.938066,30356.48,78,100,2023-02-21T15:37:19.918-08:00,698715440,0,-0.9500008,99.29464,1,0.51,0
2023-02-21T15:37:21.390-08:00,1677022641,34.06438067,-118.449973,117.3437,1.42,0.84,329.5882568,35.9721953,6,14.26776723,-9999,339648.2494,0.293945313,0.324279785,-0.02746582,339648.2394,1.284948297,1.165584962,-0.782186041,-3.178985119,-0.752156079,0.839552402,-0.31766957,-0.465314686,0.180264086,XArbitraryZVertical,-0.559678258,0.216651685,0.294531316,0.743689096,0.651928544,0.704831839,-0.279644579,0,0,0,-1,-1,339646.7782,unknown,2,2023-02-21T15:37:19.918-08:00,2023-02-14T17:43:35.488-08:00,40902,1.273687,1.086115,1.938066,30356.48,78,100,2023-02-21T15:37:19.918-08:00,698715440,0,-0.9500008,99.29464,1,0.51,0
2023-02-21T15:37:21.425-08:00,1677022641,34.06438067,-118.449973,117.3437,1.42,0.84,329.5882568,35.9721953,6,14.26776723,-9999,339648.2844,0.403625488,0.563827515,0.061157227,339648.2694,1.428771041,1.24618795,-0.794744767,-3.508418322,-0.737633228,0.789688885,-0.341040015,-0.293183208,0.25015384,XArbitraryZVertical,-0.589956062,0.200622096,0.319963907,0.713670525,0.663885474,0.713684857,-0.223405242,0,0,0,-1,-1,339646.7782,unknown,2,2023-02-21T15:37:19.918-08:00,2023-02-14T17:43:35.488-08:00,40902,1.273687,1.086115,1.938066,30356.48,78,100,2023-02-21T15:37:19.918-08:00,698715440,0,-0.9500008,99.29464,1,0.51,0
2023-02-21T15:37:21.461-08:00,1677022641,34.06438067,-118.449973,117.3437,1.42,0.84,329.5882568,35.9721953,6,14.26776723,-9999,339648.3194,0.358154297,0.696380615,0.040725708,339648.2994,1.576444187,1.328604532,-0.798683531,-2.965749741,-0.803869486,0.907818556,-0.272504091,-0.124015868,0.233937994,XArbitraryZVertical,-0.618624544,0.183424585,0.345360361,0.681458122,0.677289128,0.716438293,-0.167318195,0,0,0,-1,-1,339646.7782,unknown,2,2023-02-21T15:37:19.918-08:00,2023-02-14T17:43:35.488-08:00,40902,1.273687,1.086115,1.938066,30356.48,78,100,2023-02-21T15:37:19.918-08:00,698715440,0,-0.9500008,99.29464,1,0.51,0
2023-02-21T15:37:21.496-08:00,1677022641,34.06438067,-118.449973,117.3437,1.42,0.84,329.5882568,35.9721953,6,14.26776723,-9999,339648.3545,0.501144409,1.028335571,0.041915894,339648.3294,1.684766223,1.381118895,-0.785615965,-1.907131791,-0.797500789,0.955382466,-0.336119354,-0.010880172,0.174015999,XArbitraryZVertical,-0.635557841,0.171525649,0.36914054,0.656033851,0.694273591,0.707260787,-0.133290365,0,0,0,-1,-1,339646.7782,unknown,2,2023-02-21T15:37:19.918-08:00,2023-02-14T17:43:35.488-08:00,40902,1.273687,1.086115,1.938066,30356.48,78,100,2023-02-21T15:37:19.918-08:00,698715440,0,-0.9500008,99.29464,1,0.51,0
2023-02-21T15:37:21.531-08:00,1677022641,34.06438067,-118.449973,117.3437,1.42,0.84,329.5882568,35.9721953,6,14.26776723,-9999,339648.3895,0.694702148,1.116851807,-0.162612915,339648.3595,1.759334864,1.416444867,-0.772007214,-1.177229881,-0.384376109,0.539266407,-0.259400487,0.242732704,0.16472137,XArbitraryZVertical,-0.646604194,0.163783403,0.386068127,0.637204295,0.707993507,0.697574854,-0.110156022,0,0,0,-1,-1,339646.7782,unknown,2,2023-02-21T15:37:19.918-08:00,2023-02-14T17:43:35.488-08:00,40902,1.273687,1.086115,1.938066,30356.48,78,100,2023-02-21T15:37:19.918-08:00,698715440,0,-0.9500008,99.29464,1,0.51,0
2023-02-21T15:37:21.566-08:00,1677022641,34.06438067,-118.449973,117.3437,1.42,0.84,329.5882568,35.9721953,6,14.26776723,-9999,339648.4245,0.637496948,0.7918396,-0.246307373,339648.4195,1.762303443,1.398426142,-0.747874103,0.345405728,-0.063767187,0.18338272,-0.105191231,0.191698551,-0.075334355,XArbitraryZVertical,-0.640098961,0.165530461,0.40005675,0.634686925,0.72227186,0.680081725,-0.125745967,0,0,0,-1,-1,339646.7782,unknown,2,2023-02-21T15:37:19.918-08:00,2023-02-14T17:43:35.488-08:00,40902,1.273687,1.086115,1.938066,30356.48,78,100,2023-02-21T15:37:19.918-08:00,698715440,0,-0.9500008,99.29464,1,0.51,0
2023-02-21T15:37:21.601-08:00,1677022641,34.06438067,-118.449973,117.3437,1.42,0.84,329.5882568,35.9721953,6,14.26776723,-9999,339648.4595,0.782730103,0.737289429,-0.22795105,339648.4495,1.760567747,1.40000637,-0.743362679,-0.199749365,0.148718446,0.15933305,-0.007697105,0.079656541,-0.135144576,XArbitraryZVertical,-0.639655189,0.16816337,0.400346426,0.634259324,0.725485682,0.676767349,-0.125124648,0,0,0,-1,-1,339646.7782,unknown,2,2023-02-21T15:37:19.918-08:00,2023-02-14T17:43:35.488-08:00,40902,1.273687,1.086115,1.938066,30356.48,78,100,2023-02-21T15:37:19.918-08:00,698715440,0,-0.9500008,99.29464,1,0.51,0
2023-02-21T15:37:21.636-08:00,1677022641,34.06438067,-118.449973,117.3437,1.42,0.84,329.5882568,35.9721953,6,14.26776723,-9999,339648.4946,0.832565308,0.696914673,-0.079284668,339648.4796,1.771745432,1.412489406,-0.736759337,-0.011061686,0.217458099,0.421836972,0.053172708,0.045409143,-0.086760938,XArbitraryZVertical,-0.642211979,0.170831321,0.401846253,0.630000005,0.73138845,0.671891272,-0.116760865,0,0,0,-1,-1,339646.7782,unknown,2,2023-02-21T15:37:19.918-08:00,2023-02-14T17:43:35.488-08:00,40902,1.273687,1.086115,1.938066,30356.48,78,100,2023-02-21T15:37:19.918-08:00,698715440,0,-0.9500008,99.29464,1,0.51,0
2023-02-21T15:37:21.671-08:00,1677022641,34.06438067,-118.449973,117.3437,1.42,0.84,329.5882568,35.9721953,6,14.26776723,-9999,339648.5296,1.099533081,0.761413574,0.030380249,339648.5096,1.760266436,1.414387796,-0.714508725,0.688992083,0.383085728,0.978044927,0.120413661,0.042797387,0.070385158,XArbitraryZVertical,-0.638539073,0.182843476,0.404233523,0.62883333,0.746193945,0.655246377,-0.117672227,0,0,0,-1,-1,339646.7782,unknown,2,2023-02-21T15:37:19.918-08:00,2023-02-14T17:43:35.488-08:00,40902,1.273687,1.086115,1.938066,30356.48,78,100,2023-02-21T15:37:19.918-08:00,698715440,0,-0.9500008,99.29464,1,0.51,0
2023-02-21T15:37:21.706-08:00,1677022641,34.06438067,-118.449973,117.3437,1.42,0.84,329.5882568,35.9721953,6,14.26776723,-9999,339648.5646,1.134140015,1.01373291,-0.164413452,339648.5396,1.733456742,1.40826449,-0.669944627,1.155055761,0.357087374,1.735514402,0.326007605,0.140470922,0.157221556,XArbitraryZVertical,-0.628204719,0.204788029,0.410888371,0.628165149,0.773525417,0.620942593,-0.126841381,0,0,0,-1,-1,339646.7782,unknown,2,2023-02-21T15:37:19.918-08:00,2023-02-14T17:43:35.488-08:00,40902,1.273687,1.086115,1.938066,30356.48,78,100,2023-02-21T15:37:19.918-08:00,698715440,0,-0.9500008,99.29464,1,0.51,0
2023-02-21T15:37:21.741-08:00,1677022641,34.06438067,-118.449973,117.3437,1.42,0.84,329.5882568,35.9721953,6,14.26776723,-9999,339648.5997,0.957824707,0.893478394,-0.225585938,339648.5696,1.686329861,1.390539087,-0.602325182,2.152118206,0.292633802,2.166506767,0.336669445,0.419218779,0.019726515,XArbitraryZVertical,-0.608328698,0.23679085,0.42122603,0.629630776,0.810669363,0.56656003,-0.147732571,0,0,0,-1,-1,339646.7782,unknown,2,2023-02-21T15:37:19.918-08:00,2023-02-14T17:43:35.488-08:00,40902,1.273687,1.086115,1.938066,30356.48,78,100,2023-02-21T15:37:19.918-08:00,698715440,0,-0.9500008,99.29464,1,0.51,0
2023-02-21T15:37:21.776-08:00,1677022641,34.06438067,-118.449973,117.3437,1.42,0.84,329.5882568,35.9721953,6,14.26776723,-9999,339648.6347,1.190917969,0.615997314,-0.170196533,339648.6297,1.585011908,1.369085278,-0.490236956,1.168213606,0.786477149,0.777984381,0.188720345,0.237478018,-0.00649339,XArbitraryZVertical,-0.56881144,0.296780743,0.427462254,0.636907092,0.864334345,0.470834941,-0.176749468,0,0,0,-1,-1,339646.7782,unknown,2,2023-02-21T15:37:19.918-08:00,2023-02-14T17:43:35.488-08:00,40902,1.273687,1.086115,1.938066,30356.48,78,100,2023-02-21T15:37:19.918-08:00,698715440,0,-0.9500008,99.29464,1,0.51,0
2023-02-21T15:37:21.811-08:00,1677022641,34.06438067,-118.449973,117.3437,1.42,0.84,329.5882568,35.9721953,6,14.26776723,-9999,339648.6697,1.294128418,0.72315979,-0.411499023,339648.6597,1.551570976,1.373526997,-0.474565235,0.919124246,0.428470522,-0.183946729,0.431943834,0.16531682,-0.080427274,XArbitraryZVertical,-0.561324616,0.312646651,0.419958107,0.640938186,0.872240007,0.456951767,-0.174333498,0,0,0,-1,-1,339646.7782,unknown,2,2023-02-21T15:37:19.918-08:00,2023-02-14T17:43:35.488-08:00,40902,1.273687,1.086115,1.938066,30356.48,78,100,2023-02-21T15:37:19.918-08:00,698715440,0,-0.9500008,99.29464,1,0.51,0
2023-02-21T15:37:21.846-08:00,1677022641,34.06438067,-118.449973,117.3437,1.42,0.84,329.5882568,35.9721953,6,14.26776723,-9999,339648.7047,1.03616333,0.662612915,-0.312484741,339648.6897,1.525093237,1.367118754,-0.491285925,0.36209926,0.02781127,-1.140811205,0.354608059,0.273341775,-0.238734901,XArbitraryZVertical,-0.55949417,0.312716863,0.408441509,0.649884527,0.863501012,0.471760124,-0.178348869,0,0,0,-1,-1,339646.7782,unknown,2,2023-02-21T15:37:19.918-08:00,2023-02-14T17:43:35.488-08:00,40902,1.273687,1.086115,1.938066,30356.48,78,100,2023-02-21T15:37:19.918-08:00,698715440,0,-0.9500008,99.29464,1,0.51,0
2023-02-21T15:37:21.881-08:00,1677022641,34.06438067,-118.449973,117.3437,1.42,0.84,329.5882568,35.9721953,6,14.26776723,-9999,339648.7398,0.87411499,0.62953186,-0.263702393,339648.7198,1.511284761,1.358046214,-0.535305735,-0.120527029,-0.181742087,-1.841273904,0.170921922,0.141064703,-0.105985925,XArbitraryZVertical,-0.565135121,0.299693882,0.393756367,0.660122464,0.840720415,0.510104001,-0.181611747,0,0,0,-1,-1,339646.7782,unknown,2,2023-02-21T15:37:19.918-08:00,2023-02-14T17:43:35.488-08:00,40902,1.273687,1.086115,1.938066,30356.48,78,100,2023-02-21T15:37:19.918-08:00,698715440,0,-0.9500008,99.29464,1,0.51,0
2023-02-21T15:37:21.916-08:00,1677022641,34.06438067,-118.449973,117.3437,1.42,0.84,329.5882568,35.9721953,6,14.26776723,-9999,339648.7748,0.734649658,0.541915894,-0.316680908,339648.7498,1.498636781,1.341894206,-0.595713265,0.028150911,-0.425776333,-2.20668602,0.067957401,0.06843245,-0.07587938,XArbitraryZVertical,-0.573127346,0.278592005,0.376411986,0.672477109,0.80615747,0.561099291,-0.187823087,0,0,0,-1,-1,339646.7782,unknown,2,2023-02-21T15:37:19.918-08:00,2023-02-14T17:43:35.488-08:00,40902,1.273687,1.086115,1.938066,30356.48,78,100,2023-02-21T15:37:19.918-08:00,698715440,0,-0.9500008,99.29464,1,0.51,0
2023-02-21T15:37:21.951-08:00,1677022641,34.06438067,-118.449973,117.3437,1.42,0.84,329.5882568,35.9721953,6,14.26776723,-9999,339648.8098,0.665588379,0.37928772,-0.258285522,339648.7798,1.467849929,1.308620865,-0.661520331,0.534532726,-0.594456136,-2.414789677,-0.016032577,-0.0530532,-0.108523965,XArbitraryZVertical,-0.576892748,0.254832641,0.35588068,0.689640512,0.762095809,0.614317179,-0.204510167,0,0,0,-1,-1,339646.7782,unknown,2,2023-02-21T15:37:19.918-08:00,2023-02-14T17:43:35.488-08:00,40902,1.273687,1.086115,1.938066,30356.48,78,100,2023-02-21T15:37:19.918-08:00,698715440,0,-0.9500008,99.29464,1,0.51,0
2023-02-21T15:37:21.986-08:00,1677022641,34.06438067,-118.449973,117.3437,1.42,0.84,329.5882568,35.9721953,6,14.26776723,-9999,339648.8449,0.557373047,0.232803345,-0.176483154,339648.8398,1.341199582,1.174369131,-0.778515062,0.959832072,-1.006755233,-2.138286114,-0.052265346,-0.417799234,0.070573986,XArbitraryZVertical,-0.566062216,0.205234797,0.313939866,0.734093998,0.656742275,0.702223003,-0.27490449,0,0,0,-1,-1,339646.7782,unknown,2,2023-02-21T15:37:19.918-08:00,2023-02-14T17:43:35.488-08:00,40902,1.273687,1.086115,1.938066,30356.48,78,100,2023-02-21T15:37:19.918-08:00,698715440,0,-0.9500008,99.29464,1,0.51,0
2023-02-21T15:37:22.021-08:00,1677022641,34.06438067,-118.449973,117.3437,1.42,0.84,329.5882568,35.9721953,6,14.26776723,-9999,339648.8799,0.479675293,0.143203735,-0.132843018,339648.8699,1.273345377,1.095274823,-0.821093669,0.657536864,-0.991747975,-1.739276052,-0.088013291,-0.538547397,0.158498377,XArbitraryZVertical,-0.557813106,0.181291176,0.298308054,0.752987643,0.605820298,0.731891513,-0.311956108,0,0,0,-1,-1,339646.7782,unknown,2,2023-02-21T15:37:19.918-08:00,2023-02-14T17:43:35.488-08:00,40902,1.273687,1.086115,1.938066,30356.48,78,100,2023-02-21T15:37:19.918-08:00,698715440,0,-0.9500008,99.29464,1,0.51,0
2023-02-21T15:37:22.056-08:00,1677022641,34.06438067,-118.449973,117.3437,1.42,0.84,329.5882568,35.9721953,6,14.26776723,-9999,339648.9149,0.440811157,0.086074829,-0.103317261,339648.8999,1.225150184,1.031571322,-0.853783003,0.131474376,-0.839366257,-1.178679705,-0.097813487,-0.636523306,0.213305473,XArbitraryZVertical,-0.55282615,0.160227981,0.288206234,0.765275981,0.563893139,0.753771722,-0.337420493,0,0,0,-1,-1,339646.7782,unknown,2,2023-02-21T15:37:19.918-08:00,2023-02-14T17:43:35.488-08:00,40902,1.273687,1.086115,1.938066,30356.48,78,100,2023-02-21T15:37:19.918-08:00,698715440,0,-0.9500008,99.29464,1,0.51,0
2023-02-21T15:37:22.091-08:00,1677022642,34.06439259,-118.4499786,117.3437,1.42,0.84,329.5882568,35.9721953,7.891443625,15.56103952,-9999,339648.9499,0.496307373,0.145080566,-0.062454224,339648.9299,1.209947682,0.998762075,-0.876936615,-0.368126601,-0.560980201,-0.455631196,-0.100764871,-0.682022095,0.248995632,XArbitraryZVertical,-0.553152698,0.144654828,0.284827811,0.769395923,0.537700236,0.76878345,-0.346194148,0,0,0,-1,-1,339646.7782,unknown,2,2023-02-21T15:37:19.918-08:00,2023-02-14T17:43:35.488-08:00,40902,1.273687,1.086115,1.938066,30356.48,78,100,2023-02-21T15:37:19.918-08:00,698715440,0,-0.9500008,99.29464,1,0.51,0
2023-02-21T15:37:22.129-08:00,1677022642,34.06439259,-118.4499786,117.3437,1.42,0.84,329.5882568,35.9721953,7.891443625,15.56103952,-9999,339648.985,0.765304565,0.20880127,-0.037200928,339648.9599,1.229292277,1.002658349,-0.885918628,-0.634681582,-0.180830956,0.434838533,-0.036895633,-0.629415929,0.277912945,XArbitraryZVertical,-0.557473399,0.137984758,0.288611703,0.766085388,0.533202887,0.774496436,-0.340367228,0,0,0,-1,-1,339646.7782,unknown,2,2023-02-21T15:37:19.918-08:00,2023-02-14T17:43:35.488-08:00,40902,1.273687,1.086115,1.938066,30356.48,78,100,2023-02-21T15:37:19.918-08:00,698715440,0,-0.9500008,99.29464,1,0.51,0
2023-02-21T15:37:22.161-08:00,1677022642,34.06439259,-118.4499786,117.3437,1.42,0.84,329.5882568,35.9721953,7.891443625,15.56103952,-9999,339649.02,1.077713013,0.279571533,0.015487671,339648.99,1.28229384,1.042744734,-0.872435302,-0.817474842,0.106941909,1.515748858,0.161762297,-0.566861451,0.290800482,XArbitraryZVertical,-0.563625496,0.142644245,0.301428838,0.755724502,0.55538547,0.765897036,-0.323957831,0,0,0,-1,-1,339646.7782,unknown,2,2023-02-21T15:37:19.918-08:00,2023-02-14T17:43:35.488-08:00,40902,1.273687,1.086115,1.938066,30356.48,78,100,2023-02-21T15:37:19.918-08:00,698715440,0,-0.9500008,99.29464,1,0.51,0
2023-02-21T15:37:22.196-08:00,1677022642,34.06439259,-118.4499786,117.3437,1.42,0.84,329.5882568,35.9721953,7.891443625,15.56103952,-9999,339649.055,1.46383667,0.388137817,0.006393433,339649.05,1.465352727,1.191755606,-0.757650072,-1.176940203,0.375238955,3.707737684,0.620856583,-0.366491795,0.296244204,XArbitraryZVertical,-0.576318032,0.182901757,0.360039662,0.710475779,0.674889207,0.687216222,-0.268808931,0,0,0,-1,-1,339646.7782,unknown,2,2023-02-21T15:37:19.918-08:00,2023-02-14T17:43:35.488-08:00,40902,1.273687,1.086115,1.938066,30356.48,78,100,2023-02-21T15:37:19.918-08:00,698715440,0,-0.9500008,99.29464,1,0.51,0
2023-02-21T15:37:22.231-08:00,1677022642,34.06439259,-118.4499786,117.3437,1.42,0.84,329.5882568,35.9721953,7.891443625,15.56103952,-9999,339649.0901,1.535263062,0.620101929,-0.188873291,339649.08,1.558683795,1.262482408,-0.652219825,-0.854712129,0.268317401,4.391515255,0.811950028,-0.122531354,0.179947034,XArbitraryZVertical,-0.576882549,0.21592557,0.402980763,0.676896695,0.75726372,0.606952071,-0.24116534,0,0,0,-1,-1,339646.7782,unknown,2,2023-02-21T15:37:19.918-08:00,2023-02-14T17:43:35.488-08:00,40902,1.273687,1.086115,1.938066,30356.48,78,100,2023-02-21T15:37:19.918-08:00,698715440,0,-0.9500008,99.29464,1,0.51,0
2023-02-21T15:37:22.266-08:00,1677022642,34.06439259,-118.4499786,117.3437,1.42,0.84,329.5882568,35.9721953,7.891443625,15.56103952,-9999,339649.1251,1.292205811,0.707275391,-0.285949707,339649.1101,1.621729473,1.304882684,-0.528779699,-0.088670887,0.274201542,4.348341942,0.616111815,0.179998577,-0.016722068,XArbitraryZVertical,-0.567846154,0.253181478,0.446687439,0.643366207,0.833076298,0.504480064,-0.226899773,0,0,0,-1,-1,339646.7782,unknown,2,2023-02-21T15:37:19.918-08:00,2023-02-14T17:43:35.488-08:00,40902,1.273687,1.086115,1.938066,30356.48,78,100,2023-02-21T15:37:19.918-08:00,698715440,0,-0.9500008,99.29464,1,0.51,0
2023-02-21T15:37:22.301-08:00,1677022642,34.06439259,-118.4499786,117.3437,1.42,0.84,329.5882568,35.9721953,7.891443625,15.56103952,-9999,339649.1601,1.466506958,0.443023682,-0.20324707,339649.1401,1.638442965,1.327558132,-0.40603774,1.192706823,0.72233808,3.764401674,0.404264092,0.288438261,-0.062183082,XArbitraryZVertical,-0.549323139,0.295993197,0.478846158,0.617526097,0.891649604,0.394972324,-0.221264228,0,0,0,-1,-1,339646.7782,unknown,2,2023-02-21T15:37:19.918-08:00,2023-02-14T17:43:35.488-08:00,40902,1.273687,1.086115,1.938066,30356.48,78,100,2023-02-21T15:37:19.918-08:00,698715440,0,-0.9500008,99.29464,1,0.51,0
2023-02-21T15:37:22.336-08:00,1677022642,34.06439259,-118.4499786,117.3437,1.42,0.84,329.5882568,35.9721953,7.891443625,15.56103952,-9999,339649.1951,1.34387207,0.455703735,-0.36831665,339649.1701,1.615705325,1.344357681,-0.294926667,1.764653683,0.798428416,3.118217707,0.534109116,0.152353972,0.011567891,XArbitraryZVertical,-0.524648799,0.342543628,0.49620702,0.600987547,0.932397723,0.29066968,-0.214815006,0,0,0,-1,-1,339646.7782,unknown,2,2023-02-21T15:37:19.918-08:00,2023-02-14T17:43:35.488-08:00,40902,1.273687,1.086115,1.938066,30356.48,78,100,2023-02-21T15:37:19.918-08:00,698715440,0,-0.9500008,99.29464,1,0.51,0
2023-02-21T15:37:22.371-08:00,1677022642,34.06439259,-118.4499786,117.3437,1.42,0.84,329.5882568,35.9721953,7.891443625,15.56103952,-9999,339649.2302,0.934829712,0.277008057,-0.370040894,339649.2001,1.584945921,1.357217644,-0.200184963,1.379513264,0.46324563,2.571031332,0.429749966,0.258119553,-0.101798803,XArbitraryZVertical,-0.499363316,0.383110175,0.507513112,0.588466812,0.957762122,0.198850602,-0.207725748,0,0,0,-1,-1,339646.7782,unknown,2,2023-02-21T15:37:19.918-08:00,2023-02-14T17:43:35.488-08:00,40902,1.273687,1.086115,1.938066,30356.48,78,100,2023-02-21T15:37:19.918-08:00,698715440,0,-0.9500008,99.29464,1,0.51,0
2023-02-21T15:37:22.406-08:00,1677022642,34.06439259,-118.4499786,117.3437,1.42,0.84,329.5882568,35.9721953,7.891443625,15.56103952,-9999,339649.2652,0.677429199,0.30821228,-0.227478027,339649.2602,1.656221046,1.382419851,-0.094197022,-3.160099268,0.28897953,1.387290359,-0.245853305,0.127942279,-0.03678678,XArbitraryZVertical,-0.493606123,0.403900897,0.546648236,0.542579581,0.977954566,0.094057783,-0.18643412,0,0,0,-1,-1,339646.7782,unknown,2,2023-02-21T15:37:19.918-08:00,2023-02-14T17:43:35.488-08:00,40902,1.273687,1.086115,1.938066,30356.48,78,100,2023-02-21T15:37:19.918-08:00,698715440,0,-0.9500008,99.29464,1,0.51,0
2023-02-21T15:37:22.441-08:00,1677022642,34.06439259,-118.4499786,117.3437,1.42,0.84,329.5882568,35.9721953,7.891443625,15.56103952,-9999,339649.3002,0.593734741,0.565505981,-0.341934204,339649.2902,1.763630786,1.395647086,-0.077260813,-3.310345411,-0.068906486,0.930301607,-0.319638431,0.389246672,-0.149751142,XArbitraryZVertical,-0.514425503,0.385355368,0.57524026,0.505931191,0.981763124,0.077183969,-0.173735291,0,0,0,-1,-1,339646.7782,unknown,2,2023-02-21T15:37:19.918-08:00,2023-02-14T17:43:35.488-08:00,40902,1.273687,1.086115,1.938066,30356.48,78,100,2023-02-21T15:37:19.918-08:00,698715440,0,-0.9500008,99.29464,1,0.51,0
2023-02-21T15:37:22.476-08:00,1677022642,34.06439259,-118.4499786,117.3437,1.42,0.84,329.5882568,35.9721953,7.891443625,15.56103952,-9999,339649.3353,0.54977417,0.623443604,-0.196929932,339649.3202,1.856322397,1.396144717,-0.071062796,-2.711761951,-0.331425875,0.531772435,-0.413103044,0.494762391,-0.122449979,XArbitraryZVertical,-0.530512462,0.363171162,0.599192946,0.477106792,0.982301533,0.071003005,-0.173326477,0,0,0,-1,-1,339646.7782,unknown,2,2023-02-21T15:37:19.918-08:00,2023-02-14T17:43:35.488-08:00,40902,1.273687,1.086115,1.938066,30356.48,78,100,2023-02-21T15:37:19.918-08:00,698715440,0,-0.9500008,99.29464,1,0.51,0
2023-02-21T15:37:22.511-08:00,1677022642,34.06439259,-118.4499786,117.3437,1.42,0.84,329.5882568,35.9721953,7.891443625,15.56103952,-9999,339649.3703,0.561050415,0.761825562,-0.238830566,339649.3503,1.928661177,1.388913949,-0.072512072,-1.947423816,-0.478820026,0.250345111,-0.428979576,0.580413997,-0.012709424,XArbitraryZVertical,-0.541370948,0.34163512,0.617733619,0.456736313,0.980920374,0.072448544,-0.180405885,0,0,0,-1,-1,339646.7782,unknown,2,2023-02-21T15:37:19.918-08:00,2023-02-14T17:43:35.488-08:00,40902,1.273687,1.086115,1.938066,30356.48,78,100,2023-02-21T15:37:19.918-08:00,698715440,0,-0.9500008,99.29464,1,0.51,0
2023-02-21T15:37:22.546-08:00,1677022642,34.06439259,-118.4499786,117.3437,1.42,0.84,329.5882568,35.9721953,7.891443625,15.56103952,-9999,339649.4053,0.675247192,0.601486206,-0.256225586,339649.3803,1.968881143,1.377109644,-0.076552922,-0.715014517,-0.476241022,-0.025896065,-0.417376995,0.685347378,-0.046916366,XArbitraryZVertical,-0.545245132,0.326727152,0.629259009,0.447202691,0.978427351,0.076478176,-0.191914231,0,0,0,-1,-1,339646.7782,unknown,2,2023-02-21T15:37:19.918-08:00,2023-02-14T17:43:35.488-08:00,40902,1.273687,1.086115,1.938066,30356.48,78,100,2023-02-21T15:37:19.918-08:00,698715440,0,-0.9500008,99.29464,1,0.51,0
2023-02-21T15:37:22.582-08:00,1677022642,34.06439259,-118.4499786,117.3437,1.42,0.84,329.5882568,35.9721953,7.891443625,15.56103952,-9999,339649.4403,0.854980469,0.488800049,-0.250366211,339649.4103,1.977628907,1.365828939,-0.082970203,-0.209006354,-0.333300799,-0.257600874,-0.330008686,0.556651294,-0.061020002,XArbitraryZVertical,-0.544399752,0.319705163,0.633087253,0.447903921,0.975699484,0.082875043,-0.202835038,0,0,0,-1,-1,339649.3403,unknown,2,2023-02-21T15:37:22.480-08:00,2023-02-14T17:43:35.488-08:00,40907,1.273612,0.6718748,1.938066,30360.32,78,100,2023-02-21T15:37:22.480-08:00,698715442.5,0,-0.9399986,99.29441,1,0.51,0
2023-02-21T15:37:22.616-08:00,1677022642,34.06439259,-118.4499786,117.3437,1.42,0.84,329.5882568,35.9721953,7.891443625,15.56103952,-9999,339649.4754,1.044952393,0.574356079,-0.24848938,339649.4704,1.983355865,1.352911982,-0.104657977,0.069449402,-0.022539787,-0.362248272,-0.030874908,0.434107244,-0.035170943,XArbitraryZVertical,-0.545560889,0.308013732,0.633832876,0.453593259,0.971014738,0.104467019,-0.21498172,0,0,0,-1,-1,339649.3403,unknown,2,2023-02-21T15:37:22.480-08:00,2023-02-14T17:43:35.488-08:00,40907,1.273612,0.6718748,1.938066,30360.32,78,100,2023-02-21T15:37:22.480-08:00,698715442.5,0,-0.9399986,99.29441,1,0.51,0
2023-02-21T15:37:22.652-08:00,1677022642,34.06439259,-118.4499786,117.3437,1.42,0.84,329.5882568,35.9721953,7.891443625,15.56103952,-9999,339649.5104,1.263519287,0.653030396,-0.281509399,339649.5004,1.972000542,1.353154578,-0.113445161,0.565500379,0.082703412,-0.381255329,0.189031363,0.506152272,-0.036833704,XArbitraryZVertical,-0.54564319,0.308226693,0.629509312,0.459334175,0.970133066,0.113201983,-0.214539632,0,0,0,-1,-1,339649.3403,unknown,2,2023-02-21T15:37:22.480-08:00,2023-02-14T17:43:35.488-08:00,40907,1.273612,0.6718748,1.938066,30360.32,78,100,2023-02-21T15:37:22.480-08:00,698715442.5,0,-0.9399986,99.29441,1,0.51,0
2023-02-21T15:37:22.687-08:00,1677022642,34.06439259,-118.4499786,117.3437,1.42,0.84,329.5882568,35.9721953,7.891443625,15.56103952,-9999,339649.5454,1.367553711,0.596710205,-0.215713501,339649.5304,1.943465891,1.352664854,-0.121299216,1.113311648,0.20120129,-0.564834893,0.299577355,0.539520502,-0.049817562,XArbitraryZVertical,-0.542642573,0.313259018,0.621492464,0.47027108,0.96912986,0.121001981,-0.214815646,0,0,0,-1,-1,339649.3403,unknown,2,2023-02-21T15:37:22.480-08:00,2023-02-14T17:43:35.488-08:00,40907,1.273612,0.6718748,1.938066,30360.32,78,100,2023-02-21T15:37:22.480-08:00,698715442.5,0,-0.9399986,99.29441,1,0.51,0
2023-02-21T15:37:22.722-08:00,1677022642,34.06439259,-118.4499786,117.3437,1.42,0.84,329.5882568,35.9721953,7.891443625,15.56103952,-9999,339649.5805,1.503646851,0.604751587,-0.340133667,339649.5604,1.900187583,1.358981207,-0.133608382,1.511626959,0.418925554,-0.829056263,0.45879662,0.45844835,-0.017148644,XArbitraryZVertical,-0.540243396,0.322422884,0.606983676,0.485542335,0.968937755,0.133211225,-0.208361119,0,0,0,-1,-1,339649.3403,unknown,2,2023-02-21T15:37:22.480-08:00,2023-02-14T17:43:35.488-08:00,40907,1.273612,0.6718748,1.938066,30360.32,78,100,2023-02-21T15:37:22.480-08:00,698715442.5,0,-0.9399986,99.29441,1,0.51,0
2023-02-21T15:37:22.757-08:00,1677022642,34.06439259,-118.4499786,117.3437,1.42,0.84,329.5882568,35.9721953,7.891443625,15.56103952,-9999,339649.6155,1.146057129,0.513015747,-0.284362793,339649.5905,1.842644849,1.358682555,-0.151866642,1.91577518,0.182527065,-1.180568337,0.537310362,0.453468025,-0.1320301,XArbitraryZVertical,-0.534614589,0.331866524,0.588980716,0.507103182,0.966336489,0.151283547,-0.208103701,0,0,0,-1,-1,339649.3403,unknown,2,2023-02-21T15:37:22.480-08:00,2023-02-14T17:43:35.488-08:00,40907,1.273612,0.6718748,1.938066,30360.32,78,100,2023-02-21T15:37:22.480-08:00,698715442.5,0,-0.9399986,99.29441,1,0.51,0
2023-02-21T15:37:22.792-08:00,1677022642,34.06439259,-118.4499786,117.3437,1.42,0.84,329.5882568,35.9721953,7.891443625,15.56103952,-9999,339649.6505,1.087371826,0.371871948,-0.170394897,339649.6205,1.775705275,1.351788519,-0.184177674,1.860052705,0.119737335,-1.825024366,0.23041302,0.353299797,-0.085165173,XArbitraryZVertical,-0.528504018,0.337476145,0.56630539,0.534875117,0.959604561,0.183138177,-0.213586703,0,0,0,-1,-1,339649.3403,unknown,2,2023-02-21T15:37:22.480-08:00,2023-02-14T17:43:35.488-08:00,40907,1.273612,0.6718748,1.938066,30360.32,78,100,2023-02-21T15:37:22.480-08:00,698715442.5,0,-0.9399986,99.29441,1,0.51,0
2023-02-21T15:37:22.827-08:00,1677022642,34.06439259,-118.4499786,117.3437,1.42,0.84,329.5882568,35.9721953,7.891443625,15.56103952,-9999,339649.6855,1.263061523,0.30607605,-0.178466797,339649.6805,1.635212276,1.329086458,-0.298361677,1.732384443,-0.058549918,-2.620561361,0.325277328,0.020834148,0.074857205,XArbitraryZVertical,-0.524916379,0.331766226,0.505199482,0.599305849,0.928033829,0.29395467,-0.228787929,0,0,0,-1,-1,339649.3403,unknown,2,2023-02-21T15:37:22.480-08:00,2023-02-14T17:43:35.488-08:00,40907,1.273612,0.6718748,1.938066,30360.32,78,100,2023-02-21T15:37:22.480-08:00,698715442.5,0,-0.9399986,99.29441,1,0.51,0
2023-02-21T15:37:22.862-08:00,1677022642,34.06439259,-118.4499786,117.3437,1.42,0.84,329.5882568,35.9721953,7.891443625,15.56103952,-9999,339649.7206,1.098922729,0.303878784,-0.297058105,339649.7106,1.562525491,1.298609554,-0.360352622,1.593599796,-0.369695961,-2.519231319,0.299529016,-0.052601248,0.013702244,XArbitraryZVertical,-0.5202221,0.321843452,0.474867561,0.632681943,0.901322305,0.35260424,-0.251571506,0,0,0,-1,-1,339649.3403,unknown,2,2023-02-21T15:37:22.480-08:00,2023-02-14T17:43:35.488-08:00,40907,1.273612,0.6718748,1.938066,30360.32,78,100,2023-02-21T15:37:22.480-08:00,698715442.5,0,-0.9399986,99.29441,1,0.51,0
2023-02-21T15:37:22.897-08:00,1677022642,34.06439259,-118.4499786,117.3437,1.42,0.84,329.5882568,35.9721953,7.891443625,15.56103952,-9999,339649.7556,0.916656494,0.272689819,-0.273300171,339649.7406,1.496475912,1.259068862,-0.418744163,1.154752731,-0.593681097,-2.370397568,0.180570841,-0.104397893,-0.02616179,XArbitraryZVertical,-0.514946805,0.307778607,0.448231476,0.662714628,0.86956948,0.406613439,-0.280204237,0,0,0,-1,-1,339649.3403,unknown,2,2023-02-21T15:37:22.480-08:00,2023-02-14T17:43:35.488-08:00,40907,1.273612,0.6718748,1.938066,30360.32,78,100,2023-02-21T15:37:22.480-08:00,698715442.5,0,-0.9399986,99.29441,1,0.51,0
