loggingTime(txt),locationTimestamp_since1970(s),locationLatitude(WGS84),locationLongitude(WGS84),locationAltitude(m),locationSpeed(m/s),locationSpeedAccuracy(m/s),locationCourse(°),locationCourseAccuracy(°),locationVerticalAccuracy(m),locationHorizontalAccuracy(m),locationFloor(Z),accelerometerTimestamp_sinceReboot(s),accelerometerAccelerationX(G),accelerometerAccelerationY(G),accelerometerAccelerationZ(G),motionTimestamp_sinceReboot(s),motionYaw(rad),motionRoll(rad),motionPitch(rad),motionRotationRateX(rad/s),motionRotationRateY(rad/s),motionRotationRateZ(rad/s),motionUserAccelerationX(G),motionUserAccelerationY(G),motionUserAccelerationZ(G),motionAttitudeReferenceFrame(txt),motionQuaternionX(R),motionQuaternionY(R),motionQuaternionZ(R),motionQuaternionW(R),motionGravityX(G),motionGravityY(G),motionGravityZ(G),motionMagneticFieldX(µT),motionMagneticFieldY(µT),motionMagneticFieldZ(µT),motionHeading(°),motionMagneticFieldCalibrationAccuracy(Z),activityTimestamp_sinceReboot(s),activity(txt),activityActivityConfidence(Z),activityActivityStartDate(txt),pedometerStartDate(txt),pedometerNumberofSteps(N),pedometerAverageActivePace(s/m),pedometerCurrentPace(s/m),pedometerCurrentCadence(steps/s),pedometerDistance(m),pedometerFloorAscended(N),pedometerFloorDescended(N),pedometerEndDate(txt),altimeterTimestamp_sinceReboot(s),altimeterReset(bool),altimeterRelativeAltitude(m),altimeterPressure(kPa),batteryState(N),batteryLevel(R),label
2023-02-16T17:50:34.252-08:00,1676598634,34.068392,-118.4436029,118.151,0.974275,1.223531,271.1878357,48.66656998,9.994922861,14.30113108,-9999,50888.53183,0.27986145,-0.200164795,-0.986663818,50888.51181,1.656540196,0.161818418,0.281214075,0.17992419,0.35631007,0.01775733,0.067505538,0.182917744,-0.077649534,XArbitraryZVertical,-0.035490447,-0.157023152,-0.734763813,-0.658943196,0.154784486,-0.277522236,-0.948168337,0,0,0,-1,-1,50883.8379,unknown,2,2023-02-16T17:50:29.557-08:00,2023-02-14T17:43:35.488-08:00,12139,1.164347,0.8021268,1.822169,9022.311,25,31,2023-02-16T17:50:29.557-08:00,698284708.7,0,-102.93,100.5062,1,0.54,0
2023-02-16T17:50:34.287-08:00,1676598634,34.068392,-118.4436029,118.151,0.974275,1.223531,271.1878357,48.66656998,9.994922861,14.30113108,-9999,50888.56562,0.270446777,-0.236434937,-0.928009033,50888.54184,1.660111802,0.168809778,0.280841149,-0.278070688,0.167969659,0.184554204,0.118434429,0.076999158,-0.039498866,XArbitraryZVertical,-0.032511392,-0.159249896,-0.736066672,-0.657105964,0.161427006,-0.277163953,-0.947164953,0,0,0,-1,-1,50883.8379,unknown,2,2023-02-16T17:50:29.557-08:00,2023-02-14T17:43:35.488-08:00,12139,1.164347,0.8021268,1.822169,9022.311,25,31,2023-02-16T17:50:29.557-08:00,698284708.7,0,-102.93,100.5062,1,0.54,0
2023-02-16T17:50:34.317-08:00,1676598634,34.068392,-118.4436029,118.151,0.974275,1.223531,271.1878357,48.66656998,9.994922861,14.30113108,-9999,50888.59937,0.204284668,-0.190567017,-0.855499268,50888.57186,1.67009984,0.169443012,0.267853209,-0.605962813,0.068371825,0.304430604,0.114540502,0.030622512,0.013213933,XArbitraryZVertical,-0.02712396,-0.154915747,-0.739639687,-0.654368692,0.162620112,-0.264661819,-0.950530827,0,0,0,-1,-1,50883.8379,unknown,2,2023-02-16T17:50:29.557-08:00,2023-02-14T17:43:35.488-08:00,12139,1.164347,0.8021268,1.822169,9022.311,25,31,2023-02-16T17:50:29.557-08:00,698284708.7,0,-102.93,100.5062,1,0.54,0
2023-02-16T17:50:34.353-08:00,1676598634,34.068392,-118.4436029,118.151,0.974275,1.223531,271.1878357,48.66656998,9.994922861,14.30113108,-9999,50888.63316,0.163101196,-0.163726807,-0.956893921,50888.60189,1.683927204,0.168547477,0.251933542,-0.588513553,0.127337873,0.374348342,0.057607144,0.064233601,0.092968941,XArbitraryZVertical,-0.021082846,-0.148999976,-0.744458547,-0.650488985,0.162455082,-0.249276936,-0.954709053,0,0,0,-1,-1,50883.8379,unknown,2,2023-02-16T17:50:29.557-08:00,2023-02-14T17:43:35.488-08:00,12139,1.164347,0.8021268,1.822169,9022.311,25,31,2023-02-16T17:50:29.557-08:00,698284708.7,0,-102.93,100.5062,1,0.54,0
2023-02-16T17:50:34.387-08:00,1676598634,34.068392,-118.4436029,118.151,0.974275,1.223531,271.1878357,48.66656998,9.994922861,14.30113108,-9999,50888.66694,0.179748535,-0.113571167,-0.981994629,50888.66194,1.709323782,0.17161352,0.220575243,-0.361917526,0.081608474,0.162721038,0.026907578,0.127482384,-0.058764458,XArbitraryZVertical,-0.007732326,-0.138640298,-0.753199738,-0.642969058,0.166634873,-0.218790963,-0.961438179,0,0,0,-1,-1,50883.8379,unknown,2,2023-02-16T17:50:29.557-08:00,2023-02-14T17:43:35.488-08:00,12139,1.164347,0.8021268,1.822169,9022.311,25,31,2023-02-16T17:50:29.557-08:00,698284708.7,0,-102.93,100.5062,1,0.54,0
2023-02-16T17:50:34.422-08:00,1676598634,34.068392,-118.4436029,118.151,0.974275,1.223531,271.1878357,48.66656998,9.994922861,14.30113108,-9999,50888.70073,0.14465332,-0.190246582,-0.781311035,50888.69196,1.713297689,0.17213994,0.213487368,-0.172019094,0.033769041,0.01046493,-0.009977505,0.050110966,0.081445277,XArbitraryZVertical,-0.004934337,-0.136193456,-0.754568336,-0.641914068,0.167402402,-0.211869374,-0.962853968,0,0,0,-1,-1,50883.8379,unknown,2,2023-02-16T17:50:29.557-08:00,2023-02-14T17:43:35.488-08:00,12139,1.164347,0.8021268,1.822169,9022.311,25,31,2023-02-16T17:50:29.557-08:00,698291434.3,0,-27.29,100.633,1,0.54,0
2023-02-16T17:50:34.453-08:00,1676598634,34.068392,-118.4436029,118.151,0.974275,1.223531,271.1878357,48.66656998,9.994922861,14.30113108,-9999,50888.73449,0.116317749,-0.241424561,-0.842315674,50888.72199,1.7124096,0.173915918,0.208948197,-0.131362215,0.070376389,-0.110335022,-0.031596795,-0.007061705,0.192343771,XArbitraryZVertical,-0.002835908,-0.135076768,-0.754338939,-0.642432041,0.169276819,-0.207431093,-0.963492453,0,0,0,-1,-1,50883.8379,unknown,2,2023-02-16T17:50:29.557-08:00,2023-02-14T17:43:35.488-08:00,12139,1.164347,0.8021268,1.822169,9022.311,25,31,2023-02-16T17:50:29.557-08:00,698291434.3,0,-27.29,100.633,1,0.54,0
2023-02-16T17:50:34.488-08:00,1676598634,34.068392,-118.4436029,118.151,0.974275,1.223531,271.1878357,48.66656998,9.994922861,14.30113108,-9999,50888.76827,0.149047852,-0.257919312,-0.940429688,50888.75202,1.709346668,0.17701484,0.204716599,-0.091465071,0.077089489,-0.126519486,-0.057973921,-0.04384166,0.089490056,XArbitraryZVertical,-0.0004848,-0.134500657,-0.753400014,-0.643659713,0.172414809,-0.203289688,-0.963818669,0,0,0,-1,-1,50883.8379,unknown,2,2023-02-16T17:50:29.557-08:00,2023-02-14T17:43:35.488-08:00,12139,1.164347,0.8021268,1.822169,9022.311,25,31,2023-02-16T17:50:29.557-08:00,698291434.3,0,-27.29,100.633,1,0.54,0
2023-02-16T17:50:34.523-08:00,1676598634,34.068392,-118.4436029,118.151,0.974275,1.223531,271.1878357,48.66656998,9.994922861,14.30113108,-9999,50888.80206,0.134567261,-0.243438721,-0.840072632,50888.78204,1.706741787,0.178244155,0.202362421,0.005417207,-0.081012137,-0.061824314,-0.018303677,-0.069325343,0.024041355,XArbitraryZVertical,0.000577428,-0.134024275,-0.752582535,-0.644714418,0.173683897,-0.200984105,-0.964074314,0,0,0,-1,-1,50883.8379,unknown,2,2023-02-16T17:50:29.557-08:00,2023-02-14T17:43:35.488-08:00,12139,1.164347,0.8021268,1.822169,9022.311,25,31,2023-02-16T17:50:29.557-08:00,698291434.3,0,-27.29,100.633,1,0.54,0
2023-02-16T17:50:34.557-08:00,1676598634,34.068392,-118.4436029,118.151,0.974275,1.223531,271.1878357,48.66656998,9.994922861,14.30113108,-9999,50888.83584,0.111328125,-0.289489746,-0.824752808,50888.81207,1.704456486,0.175174424,0.205466894,0.219130456,-0.1018015,-0.065669551,-0.036046818,-0.039414465,0.123911262,XArbitraryZVertical,-0.001752738,-0.134182651,-0.751815573,-0.64557352,0.170614064,-0.204024255,-0.963983893,0,0,0,-1,-1,50883.8379,unknown,2,2023-02-16T17:50:29.557-08:00,2023-02-14T17:43:35.488-08:00,12139,1.164347,0.8021268,1.822169,9022.311,25,31,2023-02-16T17:50:29.557-08:00,698291434.3,0,-27.29,100.633,1,0.54,0
2023-02-16T17:50:34.601-08:00,1676598634,34.068392,-118.4436029,118.151,0.974275,1.223531,271.1878357,48.66656998,9.994922861,14.30113108,-9999,50888.8696,0.146728516,-0.264526367,-1.016662598,50888.84209,1.700078055,0.174474366,0.212728922,0.249445215,0.000811026,-0.129967913,-0.053481862,-0.070457593,0.152788877,XArbitraryZVertical,-0.00470811,-0.136632936,-0.750323747,-0.646779319,0.169677496,-0.211128086,-0.96261853,0,0,0,-1,-1,50883.8379,unknown,2,2023-02-16T17:50:29.557-08:00,2023-02-14T17:43:35.488-08:00,12139,1.164347,0.8021268,1.822169,9022.311,25,31,2023-02-16T17:50:29.557-08:00,698291434.3,0,-27.29,100.633,1,0.54,0
2023-02-16T17:50:34.623-08:00,1676598634,34.068392,-118.4436029,118.151,0.974275,1.223531,271.1878357,48.66656998,9.994922861,14.30113108,-9999,50888.90338,0.158203125,-0.198913574,-1.017211914,50888.87212,1.694661887,0.17582917,0.218405357,0.237674832,-0.038360409,-0.139344081,-0.045113012,-0.073915243,-0.017002881,XArbitraryZVertical,-0.00645186,-0.139148187,-0.748508784,-0.648329171,0.17076911,-0.216673136,-0.96119231,0,0,0,-1,-1,50883.8379,unknown,2,2023-02-16T17:50:29.557-08:00,2023-02-14T17:43:35.488-08:00,12139,1.164347,0.8021268,1.822169,9022.311,25,31,2023-02-16T17:50:29.557-08:00,698291434.3,0,-27.29,100.633,1,0.54,0
2023-02-16T17:50:34.658-08:00,1676598634,34.068392,-118.4436029,118.151,0.974275,1.223531,271.1878357,48.66656998,9.994922861,14.30113108,-9999,50888.93717,0.193939209,-0.271438599,-1.059082031,50888.93217,1.684506831,0.169346754,0.244775221,0.417801529,-0.224185064,-0.07222566,0.027632162,0.032026365,-0.073303998,XArbitraryZVertical,-0.018357967,-0.146650397,-0.744784989,-0.650731731,0.163514659,-0.242338255,-0.956313312,0,0,0,-1,-1,50883.8379,unknown,2,2023-02-16T17:50:29.557-08:00,2023-02-14T17:43:35.488-08:00,12139,1.164347,0.8021268,1.822169,9022.311,25,31,2023-02-16T17:50:29.557-08:00,698291434.3,0,-27.29,100.633,1,0.54,0
2023-02-16T17:50:34.692-08:00,1676598634,34.068392,-118.4436029,118.151,0.974275,1.223531,271.1878357,48.66656998,9.994922861,14.30113108,-9999,50888.97096,0.152267456,-0.24017334,-1.110626221,50888.96219,1.680683024,0.160840309,0.251667294,0.150011569,-0.381478071,-0.090660423,0.031039104,-0.063664019,-0.110911548,XArbitraryZVertical,-0.024100273,-0.146355957,-0.743320053,-0.652283932,0.155102849,-0.249019071,-0.955998242,0,0,0,-1,-1,50883.8379,unknown,2,2023-02-16T17:50:29.557-08:00,2023-02-14T17:43:35.488-08:00,12139,1.164347,0.8021268,1.822169,9022.311,25,31,2023-02-16T17:50:29.557-08:00,698291434.3,0,-27.29,100.633,1,0.54,0
2023-02-16T17:50:34.723-08:00,1676598634,34.068392,-118.4436029,118.151,0.974275,1.223531,271.1878357,48.66656998,9.994922861,14.30113108,-9999,50889.00471,0.201629639,-0.218307495,-1.048370361,50888.99221,1.675491863,0.151323759,0.261188728,0.565750182,-0.342296124,-0.16158396,0.062419444,0.102299601,-0.164325833,XArbitraryZVertical,-0.031193223,-0.146646341,-0.741287371,-0.6542284,0.145634115,-0.258229136,-0.955043674,0,0,0,-1,-1,50883.8379,unknown,2,2023-02-16T17:50:29.557-08:00,2023-02-14T17:43:35.488-08:00,12139,1.164347,0.8021268,1.822169,9022.311,25,31,2023-02-16T17:50:29.557-08:00,698291434.3,0,-27.29,100.633,1,0.54,0
2023-02-16T17:50:34.758-08:00,1676598634,34.068392,-118.4436029,118.151,0.974275,1.223531,271.1878357,48.66656998,9.994922861,14.30113108,-9999,50889.03849,0.257492065,-0.222946167,-1.192443848,50889.02224,1.667286899,0.146049155,0.276351091,0.385391325,-0.116036892,-0.175259024,0.022619456,0.011769146,-0.119824886,XArbitraryZVertical,-0.038833754,-0.150280964,-0.738129177,-0.65656136,0.140008688,-0.272847027,-0.951815128,0,0,0,-1,-1,50883.8379,unknown,2,2023-02-16T17:50:29.557-08:00,2023-02-14T17:43:35.488-08:00,12139,1.164347,0.8021268,1.822169,9022.311,25,31,2023-02-16T17:50:29.557-08:00,698291434.3,0,-27.29,100.633,1,0.54,0
2023-02-16T17:50:34.793-08:00,1676598634,34.068392,-118.4436029,118.151,0.974275,1.223531,271.1878357,48.66656998,9.994922861,14.30113108,-9999,50889.07228,0.140075684,-0.322143555,-0.963134766,50889.05226,1.659418437,0.145026813,0.284943809,0.292255789,-0.168104231,-0.228061453,0.129161179,0.050100714,-0.232709229,XArbitraryZVertical,-0.042697163,-0.152890683,-0.735286086,-0.658904927,0.138691589,-0.281103522,-0.949602783,0,0,0,-1,-1,50888.96219,unknown,2,2023-02-16T17:50:34.681-08:00,2023-02-14T17:43:35.488-08:00,12145,1.164056,0.8021268,1.822169,9027.493,25,31,2023-02-16T17:50:32.119-08:00,698291434.3,0,-27.29,100.633,1,0.54,0
2023-02-16T17:50:34.827-08:00,1676598634,34.068392,-118.4436029,118.151,0.974275,1.223531,271.1878357,48.66656998,9.994922861,14.30113108,-9999,50889.10607,0.017883301,-0.255645752,-0.920898438,50889.08229,1.648581704,0.14113771,0.290933877,0.269817322,-0.218855739,-0.439451218,0.005317494,-0.035296559,-0.014683902,XArbitraryZVertical,-0.046977749,-0.153517629,-0.731446376,-0.662730299,0.13475816,-0.286846995,-0.948450863,0,0,0,-1,-1,50888.96219,unknown,2,2023-02-16T17:50:34.681-08:00,2023-02-14T17:43:35.488-08:00,12145,1.164056,0.8021268,1.822169,9027.493,25,31,2023-02-16T17:50:32.119-08:00,698291434.3,0,-27.29,100.633,1,0.54,0
2023-02-16T17:50:34.858-08:00,1676598634,34.068392,-118.4436029,118.151,0.974275,1.223531,271.1878357,48.66656998,9.994922861,14.30113108,-9999,50889.13982,0.1275177,-0.312164307,-0.987518311,50889.11231,1.632254765,0.144389899,0.302906478,0.480439723,0.055644311,-0.407323807,-0.125481904,0.057557702,0.033301532,XArbitraryZVertical,-0.051140531,-0.158474188,-0.725738526,-0.667513329,0.137337953,-0.298295617,-0.944541156,0,0,0,-1,-1,50888.96219,unknown,2,2023-02-16T17:50:34.681-08:00,2023-02-14T17:43:35.488-08:00,12145,1.164056,0.8021268,1.822169,9027.493,25,31,2023-02-16T17:50:32.119-08:00,698291434.3,0,-27.29,100.633,1,0.54,0
2023-02-16T17:50:34.893-08:00,1676598634,34.068392,-118.4436029,118.151,0.974275,1.223531,271.1878357,48.66656998,9.994922861,14.30113108,-9999,50889.17361,0.172302246,-0.263504028,-0.826095581,50889.14234,1.622096753,0.148698762,0.308151503,0.039674409,-0.004365426,-0.180433184,-0.028959736,-0.011582613,-0.039019167,XArbitraryZVertical,-0.052190164,-0.161511656,-0.722293186,-0.670434688,0.141172826,-0.303297728,-0.942380369,0,0,0,-1,-1,50888.96219,unknown,2,2023-02-16T17:50:34.681-08:00,2023-02-14T17:43:35.488-08:00,12145,1.164056,0.8021268,1.822169,9027.493,25,31,2023-02-16T17:50:32.119-08:00,698291434.3,0,-27.29,100.633,1,0.54,0
2023-02-16T17:50:34.928-08:00,1676598634,34.068392,-118.4436029,118.151,0.974275,1.223531,271.1878357,48.66656998,9.994922861,14.30113108,-9999,50889.20739,0.197998047,-0.210281372,-0.776519775,50889.20239,1.619083041,0.150677168,0.309975169,-0.217968851,-0.003043167,0.103055254,0.066137463,0.037258506,0.190986216,XArbitraryZVertical,-0.05234736,-0.162740158,-0.721279094,-0.671216671,0.142953709,-0.305034995,-0.941550791,0,0,0,-1,-1,50888.96219,unknown,2,2023-02-16T17:50:34.681-08:00,2023-02-14T17:43:35.488-08:00,12145,1.164056,0.8021268,1.822169,9027.493,25,31,2023-02-16T17:50:32.119-08:00,698291434.3,0,-27.29,100.633,1,0.54,0
2023-02-16T17:50:34.962-08:00,1676598634,34.068392,-118.4436029,118.151,0.974275,1.223531,271.1878357,48.66656998,9.994922861,14.30113108,-9999,50889.24118,0.134902954,-0.239318848,-0.850311279,50889.23241,1.623690677,0.150448735,0.302511741,-0.273681849,0.114841461,0.092022404,0.00797087,0.128057986,0.131002903,XArbitraryZVertical,-0.049493031,-0.16014495,-0.723038665,-0.670163532,0.143075868,-0.297918826,-0.943808079,0,0,0,-1,-1,50888.96219,unknown,2,2023-02-16T17:50:34.681-08:00,2023-02-14T17:43:35.488-08:00,12145,1.164056,0.8021268,1.822169,9027.493,25,31,2023-02-16T17:50:32.119-08:00,698291434.3,0,-27.29,100.633,1,0.54,0
2023-02-16T17:50:34.993-08:00,1676598634,34.068392,-118.4436029,118.151,0.974275,1.223531,271.1878357,48.66656998,9.994922861,14.30113108,-9999,50889.27494,0.182342529,-0.294372559,-0.829452515,50889.26244,1.62778057,0.154043572,0.292208025,-0.512670279,0.179456204,0.066141106,-0.000965416,-0.016803235,0.092495799,XArbitraryZVertical,-0.044332353,-0.157794892,-0.72477874,-0.669201862,0.146930978,-0.288067341,-0.946270823,0,0,0,-1,-1,50888.96219,unknown,2,2023-02-16T17:50:34.681-08:00,2023-02-14T17:43:35.488-08:00,12145,1.164056,0.8021268,1.822169,9027.493,25,31,2023-02-16T17:50:32.119-08:00,698291434.3,0,-27.29,100.633,1,0.54,0
2023-02-16T17:50:35.028-08:00,1676598634,34.068392,-118.4436029,118.151,0.974275,1.223531,271.1878357,48.66656998,9.994922861,14.30113108,-9999,50889.30872,0.189285278,-0.215408325,-0.786010742,50889.29246,1.633024184,0.157318763,0.27551225,-0.509285808,0.123419091,0.113778241,0.044123262,0.008917361,0.120263457,XArbitraryZVertical,-0.03701968,-0.153062868,-0.727014936,-0.668319133,0.150761962,-0.27203989,-0.950402617,0,0,0,-1,-1,50888.96219,unknown,2,2023-02-16T17:50:34.681-08:00,2023-02-14T17:43:35.488-08:00,12145,1.164056,0.8021268,1.822169,9027.493,25,31,2023-02-16T17:50:32.119-08:00,698291434.3,0,-27.29,100.633,1,0.54,0
2023-02-16T17:50:35.063-08:00,1676598634,34.068392,-118.4436029,118.151,0.974275,1.223531,271.1878357,48.66656998,9.994922861,14.30113108,-9999,50889.34251,0.215499878,-0.382675171,-0.676132202,50889.32249,1.640178557,0.159118459,0.265507078,-0.319102407,0.112603597,0.254719585,0.039044514,0.036156565,0.169383347,XArbitraryZVertical,-0.032405664,-0.150216822,-0.729656452,-0.666322789,0.152895778,-0.262398601,-0.952769578,0,0,0,-1,-1,50888.96219,unknown,2,2023-02-16T17:50:34.681-08:00,2023-02-14T17:43:35.488-08:00,12145,1.164056,0.8021268,1.822169,9027.493,25,31,2023-02-16T17:50:32.119-08:00,698291434.3,0,-27.29,100.633,1,0.54,0
2023-02-16T17:50:35.098-08:00,1676598634,34.068392,-118.4436029,118.151,0.974275,1.223531,271.1878357,48.66656998,9.994922861,14.30113108,-9999,50889.37629,0.234298706,-0.386398315,-0.581848145,50889.35252,1.655230061,0.159301084,0.247117874,-1.283754945,0.190661788,0.496204287,0.061690569,-0.138064772,0.28121227,XArbitraryZVertical,-0.024987565,-0.143886705,-0.735024746,-0.662125942,0.153809279,-0.244610414,-0.957344472,0,0,0,-1,-1,50888.96219,unknown,2,2023-02-16T17:50:34.681-08:00,2023-02-14T17:43:35.488-08:00,12145,1.164056,0.8021268,1.822169,9027.493,25,31,2023-02-16T17:50:32.119-08:00,698291434.3,0,-27.29,100.633,1,0.54,0
2023-02-16T17:50:35.128-08:00,1676598634,34.068392,-118.4436029,118.151,0.974275,1.223531,271.1878357,48.66656998,9.994922861,14.30113108,-9999,50889.41005,0.195281982,-0.466156006,-0.559707642,50889.38254,1.685005991,0.160396414,0.185750316,-2.956627607,0.247422263,0.822035789,0.077260152,-0.185738355,0.393446386,XArbitraryZVertical,-0.001999149,-0.122084398,-0.745651781,-0.655053204,0.156962216,-0.184683993,-0.970182836,0,0,0,-1,-1,50888.96219,unknown,2,2023-02-16T17:50:34.681-08:00,2023-02-14T17:43:35.488-08:00,12145,1.164056,0.8021268,1.822169,9027.493,25,31,2023-02-16T17:50:32.119-08:00,698291434.3,0,-27.29,100.633,1,0.54,0
2023-02-16T17:50:35.164-08:00,1676598634,34.068392,-118.4436029,118.151,0.974275,1.223531,271.1878357,48.66656998,9.994922861,14.30113108,-9999,50889.44383,0.4818573,0.035598755,-0.612716675,50889.41257,1.734273142,0.161941396,0.077819488,-4.932590008,0.340726852,1.098225117,0.041584969,-0.4083125,0.401669204,XArbitraryZVertical,0.036538099,-0.081855435,-0.761441728,-0.642005484,0.160746545,-0.077740967,-0.983929336,0,0,0,-1,-1,50888.96219,unknown,2,2023-02-16T17:50:34.681-08:00,2023-02-14T17:43:35.488-08:00,12145,1.164056,0.8021268,1.822169,9027.493,25,31,2023-02-16T17:50:32.119-08:00,698291434.3,0,-27.29,100.633,1,0.54,0
2023-02-16T17:50:35.198-08:00,1676598634,34.068392,-118.4436029,118.151,0.974275,1.223531,271.1878357,48.66656998,9.994922861,14.30113108,-9999,50889.47762,0.311843872,0.36239624,-0.445510864,50889.47262,1.869874012,0.162464834,-0.378386012,-11.18928051,-1.745788455,0.664334953,0.380437255,-0.270437419,0.361590028,XArbitraryZVertical,0.17543823,0.103483509,-0.77853698,-0.593626762,0.150309145,0.369421124,-0.917025208,0,0,0,-1,-1,50888.96219,unknown,2,2023-02-16T17:50:34.681-08:00,2023-02-14T17:43:35.488-08:00,12145,1.164056,0.8021268,1.822169,9027.493,25,31,2023-02-16T17:50:32.119-08:00,698291434.3,0,-27.29,100.633,1,0.54,0
2023-02-16T17:50:34.252-08:00,1676598634,34.068392,-118.4436029,118.151,0.974275,1.223531,271.1878357,48.66656998,9.994922861,14.30113108,-9999,50888.53183,0.27986145,-0.200164795,-0.986663818,50888.51181,1.656540196,0.161818418,0.281214075,0.17992419,0.35631007,0.01775733,0.067505538,0.182917744,-0.077649534,XArbitraryZVertical,-0.035490447,-0.157023152,-0.734763813,-0.658943196,0.154784486,-0.277522236,-0.948168337,0,0,0,-1,-1,50883.8379,unknown,2,2023-02-16T17:50:29.557-08:00,2023-02-14T17:43:35.488-08:00,12139,1.164347,0.8021268,1.822169,9022.311,25,31,2023-02-16T17:50:29.557-08:00,698284708.7,0,-102.93,100.5062,1,0.54,0
2023-02-16T17:50:34.287-08:00,1676598634,34.068392,-118.4436029,118.151,0.974275,1.223531,271.1878357,48.66656998,9.994922861,14.30113108,-9999,50888.56562,0.270446777,-0.236434937,-0.928009033,50888.54184,1.660111802,0.168809778,0.280841149,-0.278070688,0.167969659,0.184554204,0.118434429,0.076999158,-0.039498866,XArbitraryZVertical,-0.032511392,-0.159249896,-0.736066672,-0.657105964,0.161427006,-0.277163953,-0.947164953,0,0,0,-1,-1,50883.8379,unknown,2,2023-02-16T17:50:29.557-08:00,2023-02-14T17:43:35.488-08:00,12139,1.164347,0.8021268,1.822169,9022.311,25,31,2023-02-16T17:50:29.557-08:00,698284708.7,0,-102.93,100.5062,1,0.54,0
2023-02-16T17:50:34.317-08:00,1676598634,34.068392,-118.4436029,118.151,0.974275,1.223531,271.1878357,48.66656998,9.994922861,14.30113108,-9999,50888.59937,0.204284668,-0.190567017,-0.855499268,50888.57186,1.67009984,0.169443012,0.267853209,-0.605962813,0.068371825,0.304430604,0.114540502,0.030622512,0.013213933,XArbitraryZVertical,-0.02712396,-0.154915747,-0.739639687,-0.654368692,0.162620112,-0.264661819,-0.950530827,0,0,0,-1,-1,50883.8379,unknown,2,2023-02-16T17:50:29.557-08:00,2023-02-14T17:43:35.488-08:00,12139,1.164347,0.8021268,1.822169,9022.311,25,31,2023-02-16T17:50:29.557-08:00,698284708.7,0,-102.93,100.5062,1,0.54,0
2023-02-16T17:50:34.353-08:00,1676598634,34.068392,-118.4436029,118.151,0.974275,1.223531,271.1878357,48.66656998,9.994922861,14.30113108,-9999,50888.63316,0.163101196,-0.163726807,-0.956893921,50888.60189,1.683927204,0.168547477,0.251933542,-0.588513553,0.127337873,0.374348342,0.057607144,0.064233601,0.092968941,XArbitraryZVertical,-0.021082846,-0.148999976,-0.744458547,-0.650488985,0.162455082,-0.249276936,-0.954709053,0,0,0,-1,-1,50883.8379,unknown,2,2023-02-16T17:50:29.557-08:00,2023-02-14T17:43:35.488-08:00,12139,1.164347,0.8021268,1.822169,9022.311,25,31,2023-02-16T17:50:29.557-08:00,698284708.7,0,-102.93,100.5062,1,0.54,0
2023-02-16T17:50:34.387-08:00,1676598634,34.068392,-118.4436029,118.151,0.974275,1.223531,271.1878357,48.66656998,9.994922861,14.30113108,-9999,50888.66694,0.179748535,-0.113571167,-0.981994629,50888.66194,1.709323782,0.17161352,0.220575243,-0.361917526,0.081608474,0.162721038,0.026907578,0.127482384,-0.058764458,XArbitraryZVertical,-0.007732326,-0.138640298,-0.753199738,-0.642969058,0.166634873,-0.218790963,-0.961438179,0,0,0,-1,-1,50883.8379,unknown,2,2023-02-16T17:50:29.557-08:00,2023-02-14T17:43:35.488-08:00,12139,1.164347,0.8021268,1.822169,9022.311,25,31,2023-02-16T17:50:29.557-08:00,698284708.7,0,-102.93,100.5062,1,0.54,0
2023-02-16T17:50:34.422-08:00,1676598634,34.068392,-118.4436029,118.151,0.974275,1.223531,271.1878357,48.66656998,9.994922861,14.30113108,-9999,50888.70073,0.14465332,-0.190246582,-0.781311035,50888.69196,1.713297689,0.17213994,0.213487368,-0.172019094,0.033769041,0.01046493,-0.009977505,0.050110966,0.081445277,XArbitraryZVertical,-0.004934337,-0.136193456,-0.754568336,-0.641914068,0.167402402,-0.211869374,-0.962853968,0,0,0,-1,-1,50883.8379,unknown,2,2023-02-16T17:50:29.557-08:00,2023-02-14T17:43:35.488-08:00,12139,1.164347,0.8021268,1.822169,9022.311,25,31,2023-02-16T17:50:29.557-08:00,698291434.3,0,-27.29,100.633,1,0.54,0
2023-02-16T17:50:34.453-08:00,1676598634,34.068392,-118.4436029,118.151,0.974275,1.223531,271.1878357,48.66656998,9.994922861,14.30113108,-9999,50888.73449,0.116317749,-0.241424561,-0.842315674,50888.72199,1.7124096,0.173915918,0.208948197,-0.131362215,0.070376389,-0.110335022,-0.031596795,-0.007061705,0.192343771,XArbitraryZVertical,-0.002835908,-0.135076768,-0.754338939,-0.642432041,0.169276819,-0.207431093,-0.963492453,0,0,0,-1,-1,50883.8379,unknown,2,2023-02-16T17:50:29.557-08:00,2023-02-14T17:43:35.488-08:00,12139,1.164347,0.8021268,1.822169,9022.311,25,31,2023-02-16T17:50:29.557-08:00,698291434.3,0,-27.29,100.633,1,0.54,0
2023-02-16T17:50:34.488-08:00,1676598634,34.068392,-118.4436029,118.151,0.974275,1.223531,271.1878357,48.66656998,9.994922861,14.30113108,-9999,50888.76827,0.149047852,-0.257919312,-0.940429688,50888.75202,1.709346668,0.17701484,0.204716599,-0.091465071,0.077089489,-0.126519486,-0.057973921,-0.04384166,0.089490056,XArbitraryZVertical,-0.0004848,-0.134500657,-0.753400014,-0.643659713,0.172414809,-0.203289688,-0.963818669,0,0,0,-1,-1,50883.8379,unknown,2,2023-02-16T17:50:29.557-08:00,2023-02-14T17:43:35.488-08:00,12139,1.164347,0.8021268,1.822169,9022.311,25,31,2023-02-16T17:50:29.557-08:00,698291434.3,0,-27.29,100.633,1,0.54,0
2023-02-16T17:50:34.523-08:00,1676598634,34.068392,-118.4436029,118.151,0.974275,1.223531,271.1878357,48.66656998,9.994922861,14.30113108,-9999,50888.80206,0.134567261,-0.243438721,-0.840072632,50888.78204,1.706741787,0.178244155,0.202362421,0.005417207,-0.081012137,-0.061824314,-0.018303677,-0.069325343,0.024041355,XArbitraryZVertical,0.000577428,-0.134024275,-0.752582535,-0.644714418,0.173683897,-0.200984105,-0.964074314,0,0,0,-1,-1,50883.8379,unknown,2,2023-02-16T17:50:29.557-08:00,2023-02-14T17:43:35.488-08:00,12139,1.164347,0.8021268,1.822169,9022.311,25,31,2023-02-16T17:50:29.557-08:00,698291434.3,0,-27.29,100.633,1,0.54,0
2023-02-16T17:50:34.557-08:00,1676598634,34.068392,-118.4436029,118.151,0.974275,1.223531,271.1878357,48.66656998,9.994922861,14.30113108,-9999,50888.83584,0.111328125,-0.289489746,-0.824752808,50888.81207,1.704456486,0.175174424,0.205466894,0.219130456,-0.1018015,-0.065669551,-0.036046818,-0.039414465,0.123911262,XArbitraryZVertical,-0.001752738,-0.134182651,-0.751815573,-0.64557352,0.170614064,-0.204024255,-0.963983893,0,0,0,-1,-1,50883.8379,unknown,2,2023-02-16T17:50:29.557-08:00,2023-02-14T17:43:35.488-08:00,12139,1.164347,0.8021268,1.822169,9022.311,25,31,2023-02-16T17:50:29.557-08:00,698291434.3,0,-27.29,100.633,1,0.54,0
2023-02-16T17:50:34.601-08:00,1676598634,34.068392,-118.4436029,118.151,0.974275,1.223531,271.1878357,48.66656998,9.994922861,14.30113108,-9999,50888.8696,0.146728516,-0.264526367,-1.016662598,50888.84209,1.700078055,0.174474366,0.212728922,0.249445215,0.000811026,-0.129967913,-0.053481862,-0.070457593,0.152788877,XArbitraryZVertical,-0.00470811,-0.136632936,-0.750323747,-0.646779319,0.169677496,-0.211128086,-0.96261853,0,0,0,-1,-1,50883.8379,unknown,2,2023-02-16T17:50:29.557-08:00,2023-02-14T17:43:35.488-08:00,12139,1.164347,0.8021268,1.822169,9022.311,25,31,2023-02-16T17:50:29.557-08:00,698291434.3,0,-27.29,100.633,1,0.54,0
2023-02-16T17:50:34.623-08:00,1676598634,34.068392,-118.4436029,118.151,0.974275,1.223531,271.1878357,48.66656998,9.994922861,14.30113108,-9999,50888.90338,0.158203125,-0.198913574,-1.017211914,50888.87212,1.694661887,0.17582917,0.218405357,0.237674832,-0.038360409,-0.139344081,-0.045113012,-0.073915243,-0.017002881,XArbitraryZVertical,-0.00645186,-0.139148187,-0.748508784,-0.648329171,0.17076911,-0.216673136,-0.96119231,0,0,0,-1,-1,50883.8379,unknown,2,2023-02-16T17:50:29.557-08:00,2023-02-14T17:43:35.488-08:00,12139,1.164347,0.8021268,1.822169,9022.311,25,31,2023-02-16T17:50:29.557-08:00,698291434.3,0,-27.29,100.633,1,0.54,0
2023-02-16T17:50:34.658-08:00,1676598634,34.068392,-118.4436029,118.151,0.974275,1.223531,271.1878357,48.66656998,9.994922861,14.30113108,-9999,50888.93717,0.193939209,-0.271438599,-1.059082031,50888.93217,1.684506831,0.169346754,0.244775221,0.417801529,-0.224185064,-0.07222566,0.027632162,0.032026365,-0.073303998,XArbitraryZVertical,-0.018357967,-0.146650397,-0.744784989,-0.650731731,0.163514659,-0.242338255,-0.956313312,0,0,0,-1,-1,50883.8379,unknown,2,2023-02-16T17:50:29.557-08:00,2023-02-14T17:43:35.488-08:00,12139,1.164347,0.8021268,1.822169,9022.311,25,31,2023-02-16T17:50:29.557-08:00,698291434.3,0,-27.29,100.633,1,0.54,0
2023-02-16T17:50:34.692-08:00,1676598634,34.068392,-118.4436029,118.151,0.974275,1.223531,271.1878357,48.66656998,9.994922861,14.30113108,-9999,50888.97096,0.152267456,-0.24017334,-1.110626221,50888.96219,1.680683024,0.160840309,0.251667294,0.150011569,-0.381478071,-0.090660423,0.031039104,-0.063664019,-0.110911548,XArbitraryZVertical,-0.024100273,-0.146355957,-0.743320053,-0.652283932,0.155102849,-0.249019071,-0.955998242,0,0,0,-1,-1,50883.8379,unknown,2,2023-02-16T17:50:29.557-08:00,2023-02-14T17:43:35.488-08:00,12139,1.164347,0.8021268,1.822169,9022.311,25,31,2023-02-16T17:50:29.557-08:00,698291434.3,0,-27.29,100.633,1,0.54,0
2023-02-16T17:50:34.723-08:00,1676598634,34.068392,-118.4436029,118.151,0.974275,1.223531,271.1878357,48.66656998,9.994922861,14.30113108,-9999,50889.00471,0.201629639,-0.218307495,-1.048370361,50888.99221,1.675491863,0.151323759,0.261188728,0.565750182,-0.342296124,-0.16158396,0.062419444,0.102299601,-0.164325833,XArbitraryZVertical,-0.031193223,-0.146646341,-0.741287371,-0.6542284,0.145634115,-0.258229136,-0.955043674,0,0,0,-1,-1,50883.8379,unknown,2,2023-02-16T17:50:29.557-08:00,2023-02-14T17:43:35.488-08:00,12139,1.164347,0.8021268,1.822169,9022.311,25,31,2023-02-16T17:50:29.557-08:00,698291434.3,0,-27.29,100.633,1,0.54,0
2023-02-16T17:50:34.758-08:00,1676598634,34.068392,-118.4436029,118.151,0.974275,1.223531,271.1878357,48.66656998,9.994922861,14.30113108,-9999,50889.03849,0.257492065,-0.222946167,-1.192443848,50889.02224,1.667286899,0.146049155,0.276351091,0.385391325,-0.116036892,-0.175259024,0.022619456,0.011769146,-0.119824886,XArbitraryZVertical,-0.038833754,-0.150280964,-0.738129177,-0.65656136,0.140008688,-0.272847027,-0.951815128,0,0,0,-1,-1,50883.8379,unknown,2,2023-02-16T17:50:29.557-08:00,2023-02-14T17:43:35.488-08:00,12139,1.164347,0.8021268,1.822169,9022.311,25,31,2023-02-16T17:50:29.557-08:00,698291434.3,0,-27.29,100.633,1,0.54,0
2023-02-16T17:50:34.793-08:00,1676598634,34.068392,-118.4436029,118.151,0.974275,1.223531,271.1878357,48.66656998,9.994922861,14.30113108,-9999,50889.07228,0.140075684,-0.322143555,-0.963134766,50889.05226,1.659418437,0.145026813,0.284943809,0.292255789,-0.168104231,-0.228061453,0.129161179,0.050100714,-0.232709229,XArbitraryZVertical,-0.042697163,-0.152890683,-0.735286086,-0.658904927,0.138691589,-0.281103522,-0.949602783,0,0,0,-1,-1,50888.96219,unknown,2,2023-02-16T17:50:34.681-08:00,2023-02-14T17:43:35.488-08:00,12145,1.164056,0.8021268,1.822169,9027.493,25,31,2023-02-16T17:50:32.119-08:00,698291434.3,0,-27.29,100.633,1,0.54,0
2023-02-16T17:50:34.827-08:00,1676598634,34.068392,-118.4436029,118.151,0.974275,1.223531,271.1878357,48.66656998,9.994922861,14.30113108,-9999,50889.10607,0.017883301,-0.255645752,-0.920898438,50889.08229,1.648581704,0.14113771,0.290933877,0.269817322,-0.218855739,-0.439451218,0.005317494,-0.035296559,-0.014683902,XArbitraryZVertical,-0.046977749,-0.153517629,-0.731446376,-0.662730299,0.13475816,-0.286846995,-0.948450863,0,0,0,-1,-1,50888.96219,unknown,2,2023-02-16T17:50:34.681-08:00,2023-02-14T17:43:35.488-08:00,12145,1.164056,0.8021268,1.822169,9027.493,25,31,2023-02-16T17:50:32.119-08:00,698291434.3,0,-27.29,100.633,1,0.54,0
2023-02-16T17:50:34.858-08:00,1676598634,34.068392,-118.4436029,118.151,0.974275,1.223531,271.1878357,48.66656998,9.994922861,14.30113108,-9999,50889.13982,0.1275177,-0.312164307,-0.987518311,50889.11231,1.632254765,0.144389899,0.302906478,0.480439723,0.055644311,-0.407323807,-0.125481904,0.057557702,0.033301532,XArbitraryZVertical,-0.051140531,-0.158474188,-0.725738526,-0.667513329,0.137337953,-0.298295617,-0.944541156,0,0,0,-1,-1,50888.96219,unknown,2,2023-02-16T17:50:34.681-08:00,2023-02-14T17:43:35.488-08:00,12145,1.164056,0.8021268,1.822169,9027.493,25,31,2023-02-16T17:50:32.119-08:00,698291434.3,0,-27.29,100.633,1,0.54,0
2023-02-16T17:50:34.893-08:00,1676598634,34.068392,-118.4436029,118.151,0.974275,1.223531,271.1878357,48.66656998,9.994922861,14.30113108,-9999,50889.17361,0.172302246,-0.263504028,-0.826095581,50889.14234,1.622096753,0.148698762,0.308151503,0.039674409,-0.004365426,-0.180433184,-0.028959736,-0.011582613,-0.039019167,XArbitraryZVertical,-0.052190164,-0.161511656,-0.722293186,-0.670434688,0.141172826,-0.303297728,-0.942380369,0,0,0,-1,-1,50888.96219,unknown,2,2023-02-16T17:50:34.681-08:00,2023-02-14T17:43:35.488-08:00,12145,1.164056,0.8021268,1.822169,9027.493,25,31,2023-02-16T17:50:32.119-08:00,698291434.3,0,-27.29,100.633,1,0.54,0
2023-02-16T17:50:34.928-08:00,1676598634,34.068392,-118.4436029,118.151,0.974275,1.223531,271.1878357,48.66656998,9.994922861,14.30113108,-9999,50889.20739,0.197998047,-0.210281372,-0.776519775,50889.20239,1.619083041,0.150677168,0.309975169,-0.217968851,-0.003043167,0.103055254,0.066137463,0.037258506,0.190986216,XArbitraryZVertical,-0.05234736,-0.162740158,-0.721279094,-0.671216671,0.142953709,-0.305034995,-0.941550791,0,0,0,-1,-1,50888.96219,unknown,2,2023-02-16T17:50:34.681-08:00,2023-02-14T17:43:35.488-08:00,12145,1.164056,0.8021268,1.822169,9027.493,25,31,2023-02-16T17:50:32.119-08:00,698291434.3,0,-27.29,100.633,1,0.54,0
2023-02-16T17:50:34.962-08:00,1676598634,34.068392,-118.4436029,118.151,0.974275,1.223531,271.1878357,48.66656998,9.994922861,14.30113108,-9999,50889.24118,0.134902954,-0.239318848,-0.850311279,50889.23241,1.623690677,0.150448735,0.302511741,-0.273681849,0.114841461,0.092022404,0.00797087,0.128057986,0.131002903,XArbitraryZVertical,-0.049493031,-0.16014495,-0.723038665,-0.670163532,0.143075868,-0.297918826,-0.943808079,0,0,0,-1,-1,50888.96219,unknown,2,2023-02-16T17:50:34.681-08:00,2023-02-14T17:43:35.488-08:00,12145,1.164056,0.8021268,1.822169,9027.493,25,31,2023-02-16T17:50:32.119-08:00,698291434.3,0,-27.29,100.633,1,0.54,0
2023-02-16T17:50:34.993-08:00,1676598634,34.068392,-118.4436029,118.151,0.974275,1.223531,271.1878357,48.66656998,9.994922861,14.30113108,-9999,50889.27494,0.182342529,-0.294372559,-0.829452515,50889.26244,1.62778057,0.154043572,0.292208025,-0.512670279,0.179456204,0.066141106,-0.000965416,-0.016803235,0.092495799,XArbitraryZVertical,-0.044332353,-0.157794892,-0.72477874,-0.669201862,0.146930978,-0.288067341,-0.946270823,0,0,0,-1,-1,50888.96219,unknown,2,2023-02-16T17:50:34.681-08:00,2023-02-14T17:43:35.488-08:00,12145,1.164056,0.8021268,1.822169,9027.493,25,31,2023-02-16T17:50:32.119-08:00,698291434.3,0,-27.29,100.633,1,0.54,0
2023-02-16T17:50:35.028-08:00,1676598634,34.068392,-118.4436029,118.151,0.974275,1.223531,271.1878357,48.66656998,9.994922861,14.30113108,-9999,50889.30872,0.189285278,-0.215408325,-0.786010742,50889.29246,1.633024184,0.157318763,0.27551225,-0.509285808,0.123419091,0.113778241,0.044123262,0.008917361,0.120263457,XArbitraryZVertical,-0.03701968,-0.153062868,-0.727014936,-0.668319133,0.150761962,-0.27203989,-0.950402617,0,0,0,-1,-1,50888.96219,unknown,2,2023-02-16T17:50:34.681-08:00,2023-02-14T17:43:35.488-08:00,12145,1.164056,0.8021268,1.822169,9027.493,25,31,2023-02-16T17:50:32.119-08:00,698291434.3,0,-27.29,100.633,1,0.54,0
2023-02-16T17:50:35.063-08:00,1676598634,34.068392,-118.4436029,118.151,0.974275,1.223531,271.1878357,48.66656998,9.994922861,14.30113108,-9999,50889.34251,0.215499878,-0.382675171,-0.676132202,50889.32249,1.640178557,0.159118459,0.265507078,-0.319102407,0.112603597,0.254719585,0.039044514,0.036156565,0.169383347,XArbitraryZVertical,-0.032405664,-0.150216822,-0.729656452,-0.666322789,0.152895778,-0.262398601,-0.952769578,0,0,0,-1,-1,50888.96219,unknown,2,2023-02-16T17:50:34.681-08:00,2023-02-14T17:43:35.488-08:00,12145,1.164056,0.8021268,1.822169,9027.493,25,31,2023-02-16T17:50:32.119-08:00,698291434.3,0,-27.29,100.633,1,0.54,0
2023-02-16T17:50:35.098-08:00,1676598634,34.068392,-118.4436029,118.151,0.974275,1.223531,271.1878357,48.66656998,9.994922861,14.30113108,-9999,50889.37629,0.234298706,-0.386398315,-0.581848145,50889.35252,1.655230061,0.159301084,0.247117874,-1.283754945,0.190661788,0.496204287,0.061690569,-0.138064772,0.28121227,XArbitraryZVertical,-0.024987565,-0.143886705,-0.735024746,-0.662125942,0.153809279,-0.244610414,-0.957344472,0,0,0,-1,-1,50888.96219,unknown,2,2023-02-16T17:50:34.681-08:00,2023-02-14T17:43:35.488-08:00,12145,1.164056,0.8021268,1.822169,9027.493,25,31,2023-02-16T17:50:32.119-08:00,698291434.3,0,-27.29,100.633,1,0.54,0
2023-02-16T17:50:35.128-08:00,1676598634,34.068392,-118.4436029,118.151,0.974275,1.223531,271.1878357,48.66656998,9.994922861,14.30113108,-9999,50889.41005,0.195281982,-0.466156006,-0.559707642,50889.38254,1.685005991,0.160396414,0.185750316,-2.956627607,0.247422263,0.822035789,0.077260152,-0.185738355,0.393446386,XArbitraryZVertical,-0.001999149,-0.122084398,-0.745651781,-0.655053204,0.156962216,-0.184683993,-0.970182836,0,0,0,-1,-1,50888.96219,unknown,2,2023-02-16T17:50:34.681-08:00,2023-02-14T17:43:35.488-08:00,12145,1.164056,0.8021268,1.822169,9027.493,25,31,2023-02-16T17:50:32.119-08:00,698291434.3,0,-27.29,100.633,1,0.54,0
2023-02-16T17:50:35.164-08:00,1676598634,34.068392,-118.4436029,118.151,0.974275,1.223531,271.1878357,48.66656998,9.994922861,14.30113108,-9999,50889.44383,0.4818573,0.035598755,-0.612716675,50889.41257,1.734273142,0.161941396,0.077819488,-4.932590008,0.340726852,1.098225117,0.041584969,-0.4083125,0.401669204,XArbitraryZVertical,0.036538099,-0.081855435,-0.761441728,-0.642005484,0.160746545,-0.077740967,-0.983929336,0,0,0,-1,-1,50888.96219,unknown,2,2023-02-16T17:50:34.681-08:00,2023-02-14T17:43:35.488-08:00,12145,1.164056,0.8021268,1.822169,9027.493,25,31,2023-02-16T17:50:32.119-08:00,698291434.3,0,-27.29,100.633,1,0.54,0
2023-02-16T17:50:35.198-08:00,1676598634,34.068392,-118.4436029,118.151,0.974275,1.223531,271.1878357,48.66656998,9.994922861,14.30113108,-9999,50889.47762,0.311843872,0.36239624,-0.445510864,50889.47262,1.869874012,0.162464834,-0.378386012,-11.18928051,-1.745788455,0.664334953,0.380437255,-0.270437419,0.361590028,XArbitraryZVertical,0.17543823,0.103483509,-0.77853698,-0.593626762,0.150309145,0.369421124,-0.917025208,0,0,0,-1,-1,50888.96219,unknown,2,2023-02-16T17:50:34.681-08:00,2023-02-14T17:43:35.488-08:00,12145,1.164056,0.8021268,1.822169,9027.493,25,31,2023-02-16T17:50:32.119-08:00,698291434.3,0,-27.29,100.633,1,0.54,0
2023-02-16T17:50:35.233-08:00,1676598635,34.06839653,-118.4436188,118.0791,1.034147,1.198474,270.6002197,45.00291055,9.999301506,14.29806989,-9999,50889.51141,0.098495483,1.352706909,0.040969849,50889.50264,1.936646605,0.139911935,-0.756334795,-14.03910351,-1.978465438,-0.830480099,-0.020211607,0.127613068,0.453387678,XArbitraryZVertical,0.262240336,0.266656464,-0.749221908,-0.546617706,0.101434119,0.686260164,-0.720248699,0,0,0,-1,-1,50888.96219,unknown,2,2023-02-16T17:50:34.681-08:00,2023-02-14T17:43:35.488-08:00,12145,1.164056,0.8021268,1.822169,9027.493,25,31,2023-02-16T17:50:32.119-08:00,698291434.3,0,-27.29,100.633,1,0.54,0
2023-02-16T17:50:35.263-08:00,1676598635,34.06839653,-118.4436188,118.0791,1.034147,1.198474,270.6002197,45.00291055,9.999301506,14.29806989,-9999,50889.54516,0.153549194,2.033004761,0.256958008,50889.53267,1.936606683,0.077715082,-1.176753,-12.8733902,-2.152931213,-1.826812863,0.164178222,0.768591285,0.661666274,XArbitraryZVertical,0.340911835,0.438629737,-0.67264052,-0.488812611,0.029806733,0.923364282,-0.382766157,0,0,0,-1,-1,50888.96219,unknown,2,2023-02-16T17:50:34.681-08:00,2023-02-14T17:43:35.488-08:00,12145,1.164056,0.8021268,1.822169,9027.493,25,31,2023-02-16T17:50:32.119-08:00,698291434.3,0,-27.29,100.633,1,0.54,0
2023-02-16T17:50:35.298-08:00,1676598635,34.06839653,-118.4436188,118.0791,1.034147,1.198474,270.6002197,45.00291055,9.999301506,14.29806989,-9999,50889.57895,-0.37071228,1.571731567,0.157394409,50889.56269,1.442743017,-0.466132741,-1.484504235,-7.711337566,-1.373947263,-2.269463539,0.000297576,1.023496151,0.20638454,XArbitraryZVertical,0.381440134,0.562146247,-0.59076253,-0.435309816,-0.038734481,0.99627912,-0.076990038,0,0,0,-1,-1,50888.96219,unknown,2,2023-02-16T17:50:34.681-08:00,2023-02-14T17:43:35.488-08:00,12145,1.164056,0.8021268,1.822169,9027.493,25,31,2023-02-16T17:50:32.119-08:00,698291434.3,0,-27.29,100.633,1,0.54,0
2023-02-16T17:50:35.333-08:00,1676598635,34.06839653,-118.4436188,118.0791,1.034147,1.198474,270.6002197,45.00291055,9.999301506,14.29806989,-9999,50889.61273,-0.427688599,1.465866089,0.505233765,50889.59272,-0.374505899,-2.306179436,-1.426116599,-4.443318844,-0.622707248,-2.220576525,-0.249681458,0.524516344,0.112780198,XArbitraryZVertical,0.389426297,0.629848093,-0.530335813,-0.412774039,-0.106916457,0.98955214,0.096722923,0,0,0,-1,-1,50888.96219,unknown,2,2023-02-16T17:50:34.681-08:00,2023-02-14T17:43:35.488-08:00,12145,1.164056,0.8021268,1.822169,9027.493,25,31,2023-02-16T17:50:32.119-08:00,698291434.3,0,-27.29,100.633,1,0.54,0
2023-02-16T17:50:35.368-08:00,1676598635,34.06839653,-118.4436188,118.0791,1.034147,1.198474,270.6002197,45.00291055,9.999301506,14.29806989,-9999,50889.64652,-0.512161255,1.170074463,0.187026978,50889.62274,-0.513975407,-2.456606236,-1.311947868,-2.473014832,-0.258740395,-1.692890167,-0.265747786,0.499180615,0.307005644,XArbitraryZVertical,0.38782893,0.669852771,-0.487996887,-0.403416581,-0.161940813,0.966685355,0.198228031,0,0,0,-1,-1,50888.96219,unknown,2,2023-02-16T17:50:34.681-08:00,2023-02-14T17:43:35.488-08:00,12145,1.164056,0.8021268,1.822169,9027.493,25,31,2023-02-16T17:50:32.119-08:00,698291434.3,0,-27.29,100.633,1,0.54,0
2023-02-16T17:50:35.398-08:00,1676598635,34.06839653,-118.4436188,118.0791,1.034147,1.198474,270.6002197,45.00291055,9.999301506,14.29806989,-9999,50889.68028,-0.497879028,1.100189209,-0.213592529,50889.65277,-0.529990036,-2.475143376,-1.232498752,-2.019151449,0.08660496,-1.405929685,-0.299622416,0.241554499,-0.041963667,XArbitraryZVertical,0.38442408,0.694731037,-0.457211519,-0.400655143,-0.205168888,0.943321049,0.260866165,0,0,0,-1,-1,50888.96219,unknown,2,2023-02-16T17:50:34.681-08:00,2023-02-14T17:43:35.488-08:00,12145,1.164056,0.8021268,1.822169,9027.493,25,31,2023-02-16T17:50:32.119-08:00,698291434.3,0,-27.29,100.633,1,0.54,0
2023-02-16T17:50:35.434-08:00,1676598635,34.06839653,-118.4436188,118.0791,1.034147,1.198474,270.6002197,45.00291055,9.999301506,14.29806989,-9999,50889.71406,-0.288833618,1.028869629,-0.07951355,50889.68279,-0.526453566,-2.466688467,-1.173931252,-0.917907059,0.18204008,-1.106392384,-0.285038382,0.307779431,-0.375931382,XArbitraryZVertical,0.381478972,0.71089257,-0.43287228,-0.402153081,-0.241511926,0.922277272,0.301788896,0,0,0,-1,-1,50888.96219,unknown,2,2023-02-16T17:50:34.681-08:00,2023-02-14T17:43:35.488-08:00,12145,1.164056,0.8021268,1.822169,9027.493,25,31,2023-02-16T17:50:32.119-08:00,698291434.3,0,-27.29,100.633,1,0.54,0
2023-02-16T17:50:35.470-08:00,1676598635,34.06839653,-118.4436188,118.0791,1.034147,1.198474,270.6002197,45.00291055,9.999301506,14.29806989,-9999,50889.74785,-0.315612793,0.812850952,0.204788208,50889.74284,-0.44156097,-2.381722976,-1.154977948,0.69723773,0.156943306,-0.153611556,-0.056778193,-0.019507229,-0.161950856,XArbitraryZVertical,0.367940861,0.714865191,-0.426640326,-0.414204358,-0.27824375,0.914786041,0.292825431,0,0,0,-1,-1,50888.96219,unknown,2,2023-02-16T17:50:34.681-08:00,2023-02-14T17:43:35.488-08:00,12145,1.164056,0.8021268,1.822169,9027.493,25,31,2023-02-16T17:50:32.119-08:00,698291434.3,0,-27.29,100.633,1,0.54,0
2023-02-16T17:50:35.503-08:00,1676598635,34.06839653,-118.4436188,118.0791,1.034147,1.198474,270.6002197,45.00291055,9.999301506,14.29806989,-9999,50889.78163,-0.190475464,0.941375732,0.216018677,50889.77287,-0.426613567,-2.363761616,-1.162908455,0.010076674,0.077733442,0.167576596,0.053154051,-0.068763256,-0.059199542,XArbitraryZVertical,0.367236756,0.711645208,-0.429625256,-0.417277378,-0.278358519,0.917960703,0.282603472,0,0,0,-1,-1,50888.96219,unknown,2,2023-02-16T17:50:34.681-08:00,2023-02-14T17:43:35.488-08:00,12145,1.164056,0.8021268,1.822169,9027.493,25,31,2023-02-16T17:50:32.119-08:00,698291434.3,0,-27.29,100.633,1,0.54,0
2023-02-16T17:50:35.534-08:00,1676598635,34.06839653,-118.4436188,118.0791,1.034147,1.198474,270.6002197,45.00291055,9.999301506,14.29806989,-9999,50889.81539,-0.138153076,1.05128479,0.15953064,50889.80289,-0.434282615,-2.372348819,-1.165915578,0.101566806,-0.170618981,0.090263352,0.108320206,0.022241592,-0.153009295,XArbitraryZVertical,0.368416747,0.711174061,-0.430810153,-0.415816285,-0.274000168,0.919149399,0.28299889,0,0,0,-1,-1,50888.96219,unknown,2,2023-02-16T17:50:34.681-08:00,2023-02-14T17:43:35.488-08:00,12145,1.164056,0.8021268,1.822169,9027.493,25,31,2023-02-16T17:50:32.119-08:00,698291434.3,0,-27.29,100.633,1,0.54,0
2023-02-16T17:50:35.568-08:00,1676598635,34.06839653,-118.4436188,118.0791,1.034147,1.198474,270.6002197,45.00291055,9.999301506,14.29806989,-9999,50889.84917,-0.223464966,0.776504517,0.308151245,50889.83292,-0.424140611,-2.36999635,-1.171960819,0.201737657,-0.231816098,0.022238135,0.114398271,0.071390748,-0.075850844,XArbitraryZVertical,0.365916737,0.710835875,-0.434899218,-0.414342775,-0.2707856,0.921513855,0.278365403,0,0,0,-1,-1,50888.96219,unknown,2,2023-02-16T17:50:34.681-08:00,2023-02-14T17:43:35.488-08:00,12145,1.164056,0.8021268,1.822169,9027.493,25,31,2023-02-16T17:50:32.119-08:00,698291434.3,0,-27.29,100.633,1,0.54,0
2023-02-16T17:50:35.603-08:00,1676598635,34.06839653,-118.4436188,118.0791,1.034147,1.198474,270.6002197,45.00291055,9.999301506,14.29806989,-9999,50889.88296,-0.185516357,0.801376343,0.209777832,50889.86294,-0.423876302,-2.374861308,-1.174345813,0.041023403,-0.09310402,0.08324223,0.041187406,-0.164533496,0.030101269,XArbitraryZVertical,0.364998103,0.711213204,-0.436794994,-0.412507198,-0.267902434,0.922437429,0.278095663,0,0,0,-1,-1,50888.96219,unknown,2,2023-02-16T17:50:34.681-08:00,2023-02-14T17:43:35.488-08:00,12145,1.164056,0.8021268,1.822169,9027.493,25,31,2023-02-16T17:50:32.119-08:00,698291434.3,0,-27.29,100.633,1,0.54,0
2023-02-16T17:50:35.638-08:00,1676598635,34.06839653,-118.4436188,118.0791,1.034147,1.198474,270.6002197,45.00291055,9.999301506,14.29806989,-9999,50889.91674,-0.217926025,0.704864502,0.151412964,50889.89297,-0.423153831,-2.374737616,-1.178284209,0.167761639,0.019783186,0.085934654,0.079897791,-0.122574806,-0.065666676,XArbitraryZVertical,0.365154627,0.710200216,-0.438492656,-0.412312872,-0.265414149,0.923951089,0.275444508,0,0,0,-1,-1,50888.96219,unknown,2,2023-02-16T17:50:34.681-08:00,2023-02-14T17:43:35.488-08:00,12145,1.164056,0.8021268,1.822169,9027.493,25,31,2023-02-16T17:50:32.119-08:00,698291434.3,0,-27.29,100.633,1,0.54,0
2023-02-16T17:50:35.669-08:00,1676598635,34.06839653,-118.4436188,118.0791,1.034147,1.198474,270.6002197,45.00291055,9.999301506,14.29806989,-9999,50889.9505,-0.292770386,0.787857056,0.172775269,50889.92299,-0.421485179,-2.372434386,-1.182655722,0.076901346,0.022644222,0.093372062,0.055685937,-0.205735326,-0.13008213,XArbitraryZVertical,0.365497418,0.708784542,-0.440157918,-0.412670665,-0.263236016,0.925614357,0.271927774,0,0,0,-1,-1,50888.96219,unknown,2,2023-02-16T17:50:34.681-08:00,2023-02-14T17:43:35.488-08:00,12145,1.164056,0.8021268,1.822169,9027.493,25,31,2023-02-16T17:50:32.119-08:00,698291434.3,0,-27.29,100.633,1,0.54,0
2023-02-16T17:50:35.704-08:00,1676598635,34.06839653,-118.4436188,118.0791,1.034147,1.198474,270.6002197,45.00291055,9.999301506,14.29806989,-9999,50889.98429,-0.232406616,0.855682373,0.132659912,50889.95302,-0.424119382,-2.373057346,-1.187011137,0.142879888,0.098042309,0.119622707,-0.031883061,-0.198418081,-0.106913477,XArbitraryZVertical,0.366718525,0.707186557,-0.441461486,-0.412936223,-0.260261685,0.927253962,0.269190609,0,0,0,-1,-1,50888.96219,unknown,2,2023-02-16T17:50:34.681-08:00,2023-02-14T17:43:35.488-08:00,12145,1.164056,0.8021268,1.822169,9027.493,25,31,2023-02-16T17:50:32.119-08:00,698291434.3,0,-27.29,100.633,1,0.54,0
2023-02-16T17:50:35.739-08:00,1676598635,34.06839653,-118.4436188,118.0791,1.034147,1.198474,270.6002197,45.00291055,9.999301506,14.29806989,-9999,50890.01807,-0.236740112,0.856231689,0.187057495,50890.01307,-0.415200454,-2.358154893,-1.194440838,0.123267405,0.106255695,-0.0071372,0.008093596,-0.080461979,-0.096621752,XArbitraryZVertical,0.36760635,0.703606931,-0.443522853,-0.416041211,-0.259375334,0.930010319,0.260394275,0,0,0,-1,-1,50888.96219,unknown,2,2023-02-16T17:50:34.681-08:00,2023-02-14T17:43:35.488-08:00,12145,1.164056,0.8021268,1.822169,9027.493,25,31,2023-02-16T17:50:32.119-08:00,698291434.3,0,-27.29,100.633,1,0.54,0
2023-02-16T17:50:35.774-08:00,1676598635,34.06839653,-118.4436188,118.0791,1.034147,1.198474,270.6002197,45.00291055,9.999301506,14.29806989,-9999,50890.05186,-0.171386719,0.751159668,0.079742432,50890.04309,-0.409284052,-2.3485872,-1.193203766,-0.140929446,0.103519961,-0.09382809,0.052072167,-0.12054944,-0.122492492,XArbitraryZVertical,0.367518498,0.70305328,-0.442508768,-0.4181292,-0.262673885,0.929554939,0.258707523,0,0,0,-1,-1,50888.96219,unknown,2,2023-02-16T17:50:34.681-08:00,2023-02-14T17:43:35.488-08:00,12145,1.164056,0.8021268,1.822169,9027.493,25,31,2023-02-16T17:50:32.119-08:00,698291434.3,0,-27.29,100.633,1,0.54,0
2023-02-16T17:50:35.804-08:00,1676598635,34.06839653,-118.4436188,118.0791,1.034147,1.198474,270.6002197,45.00291055,9.999301506,14.29806989,-9999,50890.08562,-0.251144409,0.999603271,0.259277344,50890.07312,-0.417974328,-2.355398371,-1.187094392,-0.212880507,-0.010070383,-0.049815688,0.083767742,-0.083031654,-0.117495537,XArbitraryZVertical,0.368447214,0.704624683,-0.439525162,-0.417813712,-0.264920056,0.927285135,0.264498591,0,0,0,-1,-1,50888.96219,unknown,2,2023-02-16T17:50:34.681-08:00,2023-02-14T17:43:35.488-08:00,12145,1.164056,0.8021268,1.822169,9027.493,25,31,2023-02-16T17:50:32.119-08:00,698291434.3,0,-27.29,100.633,1,0.54,0
2023-02-16T17:50:35.839-08:00,1676598635,34.06839653,-118.4436188,118.0791,1.034147,1.198474,270.6002197,45.00291055,9.999301506,14.29806989,-9999,50890.1194,-0.301101685,1.087997437,0.365203857,50890.10315,-0.42496462,-2.361935185,-1.182234605,-0.171549425,0.047013476,-0.053199533,-0.0163185,0.114965558,0.038328052,XArbitraryZVertical,0.368989718,0.706087643,-0.437340584,-0.417157092,-0.266350567,0.925454915,0.269426346,0,0,0,-1,-1,50888.96219,unknown,2,2023-02-16T17:50:34.681-08:00,2023-02-14T17:43:35.488-08:00,12145,1.164056,0.8021268,1.822169,9027.493,25,31,2023-02-16T17:50:32.119-08:00,698291434.3,0,-27.29,100.633,1,0.54,0
2023-02-16T17:50:35.874-08:00,1676598635,34.06839653,-118.4436188,118.0791,1.034147,1.198474,270.6002197,45.00291055,9.999301506,14.29806989,-9999,50890.15319,-0.355239868,1.170288086,0.181488037,50890.13317,-0.431943879,-2.364664377,-1.175172683,-0.205455557,0.130692735,-0.147991598,-0.01545465,0.175205112,0.068501383,XArbitraryZVertical,0.370159572,0.707378921,-0.433575776,-0.417862588,-0.270189941,0.922756374,0.274806082,0,0,0,-1,-1,50888.96219,unknown,2,2023-02-16T17:50:34.681-08:00,2023-02-14T17:43:35.488-08:00,12145,1.164056,0.8021268,1.822169,9027.493,25,31,2023-02-16T17:50:32.119-08:00,698291434.3,0,-27.29,100.633,1,0.54,0
2023-02-16T17:50:35.909-08:00,1676598635,34.06839653,-118.4436188,118.0791,1.034147,1.198474,270.6002197,45.00291055,9.999301506,14.29806989,-9999,50890.18697,-0.34552002,1.016021729,0.286407471,50890.1632,-0.420452717,-2.352660467,-1.17409929,0.263567537,-0.048400726,-0.084625863,-0.081068605,0.247945786,-0.090752274,XArbitraryZVertical,0.36858863,0.707292394,-0.433337359,-0.41964095,-0.274171263,0.922342181,0.272240222,0,0,0,-1,-1,50888.96219,unknown,2,2023-02-16T17:50:34.681-08:00,2023-02-14T17:43:35.488-08:00,12145,1.164056,0.8021268,1.822169,9027.493,25,31,2023-02-16T17:50:32.119-08:00,698291434.3,0,-27.29,100.633,1,0.54,0
2023-02-16T17:50:35.939-08:00,1676598635,34.06839653,-118.4436188,118.0791,1.034147,1.198474,270.6002197,45.00291055,9.999301506,14.29806989,-9999,50890.22073,-0.261566162,1.213546753,0.414611816,50890.19322,-0.420931553,-2.35652644,-1.175995966,-0.176618114,-0.155304804,0.201955557,-0.065400213,0.082496285,0.004672706,XArbitraryZVertical,0.368113629,0.707476287,-0.434703902,-0.418332737,-0.27188012,0.923073351,0.272060692,0,0,0,-1,-1,50888.96219,unknown,2,2023-02-16T17:50:34.681-08:00,2023-02-14T17:43:35.488-08:00,12145,1.164056,0.8021268,1.822169,9027.493,25,31,2023-02-16T17:50:32.119-08:00,698291434.3,0,-27.29,100.633,1,0.54,0
2023-02-16T17:50:35.975-08:00,1676598635,34.06839653,-118.4436188,118.0791,1.034147,1.198474,270.6002197,45.00291055,9.999301506,14.29806989,-9999,50890.25451,-0.271057129,0.981491089,0.346832275,50890.22325,-0.451592326,-2.388544215,-1.175115079,-0.326019049,-0.063656509,0.271457732,-0.0345698,0.253413081,0.124895304,XArbitraryZVertical,0.371931437,0.708714093,-0.433898659,-0.413670345,-0.263586909,0.922734201,0.281217307,0,0,0,-1,-1,50888.96219,unknown,2,2023-02-16T17:50:34.681-08:00,2023-02-14T17:43:35.488-08:00,12145,1.164056,0.8021268,1.822169,9027.493,25,31,2023-02-16T17:50:32.119-08:00,698291434.3,0,-27.29,100.633,1,0.54,0
2023-02-16T17:50:36.009-08:00,1676598635,34.06839653,-118.4436188,118.0791,1.034147,1.198474,270.6002197,45.00291055,9.999301506,14.29806989,-9999,50890.2883,-0.408447266,0.765869141,0.352539063,50890.2833,-0.48276242,-2.413229928,-1.179759855,-0.070186473,0.207365736,0.289644301,-0.136610091,-0.111038029,0.08169806,XArbitraryZVertical,0.378006745,0.706632242,-0.43395512,-0.411660841,-0.253709733,0.924514532,0.284436435,0,0,0,-1,-1,50888.96219,unknown,2,2023-02-16T17:50:34.681-08:00,2023-02-14T17:43:35.488-08:00,12145,1.164056,0.8021268,1.822169,9027.493,25,31,2023-02-16T17:50:32.119-08:00,698291434.3,0,-27.29,100.633,1,0.54,0
2023-02-16T17:50:36.044-08:00,1676598635,34.06839653,-118.4436188,118.0791,1.034147,1.198474,270.6002197,45.00291055,9.999301506,14.29806989,-9999,50890.32209,-0.324981689,0.938217163,0.325683594,50890.31332,-0.51091527,-2.43195794,-1.18520054,-0.052028615,0.26277858,0.428604335,-0.145918384,-0.081436098,0.082556337,XArbitraryZVertical,0.384289904,0.703548232,-0.433913512,-0.411169203,-0.245057568,0.926574528,0.285317689,0,0,0,-1,-1,50888.96219,unknown,2,2023-02-16T17:50:34.681-08:00,2023-02-14T17:43:35.488-08:00,12145,1.164056,0.8021268,1.822169,9027.493,25,31,2023-02-16T17:50:32.119-08:00,698291434.3,0,-27.29,100.633,1,0.54,0
2023-02-16T17:50:36.074-08:00,1676598635,34.06839653,-118.4436188,118.0791,1.034147,1.198474,270.6002197,45.00291055,9.999301506,14.29806989,-9999,50890.35584,-0.259399414,0.999801636,0.389266968,50890.34335,-0.532889235,-2.445789313,-1.194882882,0.220582038,0.162357047,0.397806704,-0.047190368,0.049655139,0.063266397,XArbitraryZVertical,0.389664584,0.69932238,-0.435950058,-0.411165669,-0.235326111,0.930172682,0.281780571,0,0,0,-1,-1,50888.96219,unknown,2,2023-02-16T17:50:34.681-08:00,2023-02-14T17:43:35.488-08:00,12145,1.164056,0.8021268,1.822169,9027.493,25,31,2023-02-16T17:50:32.119-08:00,698291434.3,0,-27.29,100.633,1,0.54,0
2023-02-16T17:50:36.109-08:00,1676598635,34.06839653,-118.4436188,118.0791,1.034147,1.198474,270.6002197,45.00291055,9.999301506,14.29806989,-9999,50890.38963,-0.254882813,0.884811401,0.384902954,50890.37337,-0.55155387,-2.459695344,-1.204409561,-0.198494807,0.061153062,0.381193042,-0.015085489,0.031704247,0.128559142,XArbitraryZVertical,0.393734931,0.695729436,-0.438648352,-0.410513129,-0.22578977,0.933627844,0.278133273,0,0,0,-1,-1,50888.96219,unknown,2,2023-02-16T17:50:34.681-08:00,2023-02-14T17:43:35.488-08:00,12145,1.164056,0.8021268,1.822169,9027.493,25,31,2023-02-16T17:50:32.119-08:00,698291434.3,0,-27.29,100.633,1,0.54,0
2023-02-16T17:50:36.144-08:00,1676598635,34.06839653,-118.4436188,118.0791,1.034147,1.198474,270.6002197,45.00291055,9.999301506,14.29806989,-9999,50890.42341,-0.182479858,0.918487549,0.217483521,50890.4034,-0.60351032,-2.506639461,-1.198062998,-0.783839166,0.070087969,0.305967122,-0.040638477,-0.040084958,0.078532457,XArbitraryZVertical,0.401245219,0.696846956,-0.434840237,-0.405364655,-0.215999126,0.931335449,0.293186814,0,0,0,-1,-1,50888.96219,unknown,2,2023-02-16T17:50:34.681-08:00,2023-02-14T17:43:35.488-08:00,12145,1.164056,0.8021268,1.822169,9027.493,25,31,2023-02-16T17:50:32.119-08:00,698291434.3,0,-27.29,100.633,1,0.54,0
2023-02-16T17:50:36.179-08:00,1676598635,34.06839653,-118.4436188,118.0791,1.034147,1.198474,270.6002197,45.00291055,9.999301506,14.29806989,-9999,50890.4572,-0.174545288,0.786987305,0.158721924,50890.43342,-0.648587419,-2.546590101,-1.186922021,-0.31373921,0.046690702,0.181817636,0.027439967,-0.008733213,-0.092670232,XArbitraryZVertical,0.407936166,0.699045692,-0.429366223,-0.400709008,-0.209919795,0.927220583,0.310153604,0,0,0,-1,-1,50888.96219,unknown,2,2023-02-16T17:50:34.681-08:00,2023-02-14T17:43:35.488-08:00,12145,1.164056,0.8021268,1.822169,9027.493,25,31,2023-02-16T17:50:32.119-08:00,698291434.3,0,-27.29,100.633,1,0.54,0
2023-02-16T17:50:36.209-08:00,1676598635,34.06839653,-118.4436188,118.0791,1.034147,1.198474,270.6002197,45.00291055,9.999301506,14.29806989,-9999,50890.49096,-0.172515869,0.775985718,0.147293091,50890.46345,-0.657143277,-2.553404915,-1.190523086,0.210873052,0.054143824,0.130230337,0.032867044,-0.110631168,-0.155919671,XArbitraryZVertical,0.409561225,0.69760898,-0.430491352,-0.400347938,-0.205947503,0.928563237,0.308797359,0,0,0,-1,-1,50888.96219,unknown,2,2023-02-16T17:50:34.681-08:00,2023-02-14T17:43:35.488-08:00,12145,1.164056,0.8021268,1.822169,9027.493,25,31,2023-02-16T17:50:32.119-08:00,698291434.3,0,-27.29,100.633,1,0.54,0
2023-02-16T17:50:36.245-08:00,1676598635,34.06839653,-118.4436188,118.0791,1.034147,1.198474,270.6002197,45.00291055,9.999301506,14.29806989,-9999,50890.52474,-0.23387146,0.799285889,0.090270996,50890.49347,-0.657498431,-2.551288326,-1.195616218,0.063567914,0.08279524,0.050870374,0.040894628,-0.174628258,-0.130324751,XArbitraryZVertical,0.410278485,0.695618627,-0.432028605,-0.40141923,-0.203965306,0.930441618,0.304427415,0,0,0,-1,-1,50888.96219,unknown,2,2023-02-16T17:50:34.681-08:00,2023-02-14T17:43:35.488-08:00,12145,1.164056,0.8021268,1.822169,9027.493,25,31,2023-02-16T17:50:32.119-08:00,698291434.3,0,-27.29,100.633,1,0.54,0
2023-02-16T17:50:36.279-08:00,1676598635,34.06839653,-118.4436188,118.0791,1.034147,1.198474,270.6002197,45.00291055,9.999301506,14.29806989,-9999,50890.55853,-0.292907715,0.758804321,0.139862061,50890.55352,-0.64681397,-2.536212608,-1.193785537,0.228779987,0.073211789,-0.111816905,-0.056154996,-0.229009509,-0.170439988,XArbitraryZVertical,0.409759862,0.695310011,-0.430356248,-0.404269988,-0.209500507,0.929769218,0.302718312,0,0,0,-1,-1,50888.96219,unknown,2,2023-02-16T17:50:34.681-08:00,2023-02-14T17:43:35.488-08:00,12145,1.164056,0.8021268,1.822169,9027.493,25,31,2023-02-16T17:50:32.119-08:00,698291434.3,0,-27.29,100.633,1,0.54,0
2023-02-16T17:50:36.314-08:00,1676598635,34.06839653,-118.4436188,118.0791,1.034147,1.198474,270.6002197,45.00291055,9.999301506,14.29806989,-9999,50890.59231,-0.353378296,0.853546143,0.077011108,50890.58355,-0.620674447,-2.509380371,-1.201351628,0.46539706,0.076922774,-0.120974779,-0.102030858,-0.148012757,-0.156219274,XArbitraryZVertical,0.406751583,0.692968798,-0.433219589,-0.408250031,-0.213383555,0.932528019,0.291305214,0,0,0,-1,-1,50888.96219,unknown,2,2023-02-16T17:50:34.681-08:00,2023-02-14T17:43:35.488-08:00,12145,1.164056,0.8021268,1.822169,9027.493,25,31,2023-02-16T17:50:32.119-08:00,698291434.3,0,-27.29,100.633,1,0.54,0
2023-02-16T17:50:36.345-08:00,1676598636,34.0684013,-118.4436315,118.1608,1.032956,1.189289,270.6002197,45.61503141,9.999719815,14.29777734,-9999,50890.62607,-0.332839966,0.966552734,0.112976074,50890.61357,-0.59605187,-2.485359927,-1.20667324,0.093234569,-0.014140027,-0.1540346,-0.141888827,-0.073459327,-0.213022947,XArbitraryZVertical,0.403680542,0.691463852,-0.435525926,-0.411384142,-0.217287838,0.93443644,0.282160491,0,0,0,-1,-1,50888.96219,unknown,2,2023-02-16T17:50:34.681-08:00,2023-02-14T17:43:35.488-08:00,12145,1.164056,0.8021268,1.822169,9027.493,25,31,2023-02-16T17:50:32.119-08:00,698291434.3,0,-27.29,100.633,1,0.54,0
2023-02-16T17:50:36.379-08:00,1676598636,34.0684013,-118.4436315,118.1608,1.032956,1.189289,270.6002197,45.61503141,9.999719815,14.29777734,-9999,50890.65985,-0.30355835,0.979766846,0.25541687,50890.6436,-0.579443684,-2.472011685,-1.205368574,0.198839515,-0.12893486,-0.23571451,-0.109843686,0.062824428,-0.128990948,XArbitraryZVertical,0.400775937,0.692440423,-0.43574061,-0.412352808,-0.221790805,0.933970988,0.28019017,0,0,0,-1,-1,50888.96219,unknown,2,2023-02-16T17:50:34.681-08:00,2023-02-14T17:43:35.488-08:00,12145,1.164056,0.8021268,1.822169,9027.493,25,31,2023-02-16T17:50:32.119-08:00,698291434.3,0,-27.29,100.633,1,0.54,0
2023-02-16T17:50:36.414-08:00,1676598636,34.0684013,-118.4436315,118.1608,1.032956,1.189289,270.6002197,45.61503141,9.999719815,14.29777734,-9999,50890.69364,-0.229431152,1.028091431,0.265411377,50890.67362,-0.547442024,-2.446242454,-1.208462531,0.309370965,-0.153240457,-0.20227094,-0.067913875,0.040666163,-0.012198508,XArbitraryZVertical,0.395506333,0.692571949,-0.438459347,-0.414333253,-0.227084279,0.935072124,0.272162318,0,0,0,-1,-1,50888.96219,unknown,2,2023-02-16T17:50:34.681-08:00,2023-02-14T17:43:35.488-08:00,12145,1.164056,0.8021268,1.822169,9027.493,25,31,2023-02-16T17:50:32.119-08:00,698291434.3,0,-27.29,100.633,1,0.54,0
2023-02-16T17:50:36.449-08:00,1676598636,34.0684013,-118.4436315,118.1608,1.032956,1.189289,270.6002197,45.61503141,9.999719815,14.29777734,-9999,50890.72743,-0.223526001,0.964065552,0.25302124,50890.70365,-0.529164799,-2.434063103,-1.207381003,-0.176806808,-0.20328784,-0.153394789,0.001608431,0.093403101,-0.00473392,XArbitraryZVertical,0.39177304,0.693964337,-0.439418427,-0.414534399,-0.231039599,0.93468821,0.270145237,0,0,0,-1,-1,50888.96219,unknown,2,2023-02-16T17:50:34.681-08:00,2023-02-14T17:43:35.488-08:00,12145,1.164056,0.8021268,1.822169,9027.493,25,31,2023-02-16T17:50:32.119-08:00,698291434.3,0,-27.29,100.633,1,0.54,0
2023-02-16T17:50:36.479-08:00,1676598636,34.0684013,-118.4436315,118.1608,1.032956,1.189289,270.6002197,45.61503141,9.999719815,14.29777734,-9999,50890.76118,-0.121307373,1.092208862,0.528335571,50890.73367,-0.550898502,-2.461802636,-1.194864199,-0.621285498,-0.362142533,0.054420374,0.013570845,0.010111332,-0.048008054,XArbitraryZVertical,0.392471334,0.699091859,-0.435378804,-0.409490097,-0.230794981,0.930165827,0.285526365,0,0,0,-1,-1,50888.96219,unknown,2,2023-02-16T17:50:34.681-08:00,2023-02-14T17:43:35.488-08:00,12145,1.164056,0.8021268,1.822169,9027.493,25,31,2023-02-16T17:50:32.119-08:00,698291434.3,0,-27.29,100.633,1,0.54,0
2023-02-16T17:50:36.515-08:00,1676598636,34.0684013,-118.4436315,118.1608,1.032956,1.189289,270.6002197,45.61503141,9.999719815,14.29777734,-9999,50890.79497,0.159561157,0.965667725,0.308349609,50890.7637,-0.587558552,-2.510265406,-1.185625935,-0.693734705,-0.591125309,0.359117895,0.027051926,0.21671319,0.209461153,XArbitraryZVertical,0.394311162,0.704390673,-0.433779761,-0.400234158,-0.221754014,0.926734447,0.303295016,0,0,0,-1,-1,50888.96219,unknown,2,2023-02-16T17:50:34.681-08:00,2023-02-14T17:43:35.488-08:00,12145,1.164056,0.8021268,1.822169,9027.493,25,31,2023-02-16T17:50:32.119-08:00,698291434.3,0,-27.29,100.633,1,0.54,0
2023-02-16T17:50:36.550-08:00,1676598636,34.0684013,-118.4436315,118.1608,1.032956,1.189289,270.6002197,45.61503141,9.999719815,14.29777734,-9999,50890.82875,0.172439575,0.963943481,0.427612305,50890.82375,-0.767403598,-2.726679142,-1.124342968,-1.207728148,-1.007885098,0.47088474,0.392983794,0.089211404,-0.015708864,XArbitraryZVertical,0.41175547,0.726652803,-0.418427965,-0.35686277,-0.174050659,0.901984096,0.395133734,0,0,0,-1,-1,50888.96219,unknown,2,2023-02-16T17:50:34.681-08:00,2023-02-14T17:43:35.488-08:00,12145,1.164056,0.8021268,1.822169,9027.493,25,31,2023-02-16T17:50:32.119-08:00,698291434.3,0,-27.29,100.633,1,0.54,0
2023-02-16T17:50:36.584-08:00,1676598636,34.0684013,-118.4436315,118.1608,1.032956,1.189289,270.6002197,45.61503141,9.999719815,14.29777734,-9999,50890.86254,0.051803589,1.071426392,0.921859741,50890.85377,-0.803325953,-2.791459909,-1.12937509,0.835466921,-0.973244965,0.623488307,0.177599281,0.186049223,0.240129828,XArbitraryZVertical,0.41099986,0.729198867,-0.42750954,-0.341443479,-0.146547675,0.90414536,0.401303738,0,0,0,-1,-1,50888.96219,unknown,2,2023-02-16T17:50:34.681-08:00,2023-02-14T17:43:35.488-08:00,12145,1.164056,0.8021268,1.822169,9027.493,25,31,2023-02-16T17:50:32.119-08:00,698291434.3,0,-27.29,100.633,1,0.54,0
2023-02-16T17:50:36.615-08:00,1676598636,34.0684013,-118.4436315,118.1608,1.032956,1.189289,270.6002197,45.61503141,9.999719815,14.29777734,-9999,50890.8963,0.081100464,0.905288696,0.872848511,50890.8838,-0.836781611,-2.847542573,-1.162293913,0.3548159,-0.691333413,0.868780613,0.251071572,-0.045280218,0.59213537,XArbitraryZVertical,0.409414274,0.722822615,-0.44646917,-0.332524704,-0.11513105,0.917716742,0.380185157,0,0,0,-1,-1,50888.96219,unknown,2,2023-02-16T17:50:34.681-08:00,2023-02-14T17:43:35.488-08:00,12145,1.164056,0.8021268,1.822169,9027.493,25,31,2023-02-16T17:50:32.119-08:00,698291434.3,0,-27.29,100.633,1,0.54,0
2023-02-16T17:50:36.650-08:00,1676598636,34.0684013,-118.4436315,118.1608,1.032956,1.189289,270.6002197,45.61503141,9.999719815,14.29777734,-9999,50890.93008,-0.104476929,0.979202271,0.529953003,50890.91382,-0.897727873,-2.919338759,-1.160970375,-0.552385986,-0.493661702,0.69747591,0.186798245,0.075867176,0.384788096,XArbitraryZVertical,0.415418037,0.722324368,-0.450814156,-0.320065648,-0.087829769,0.917190194,0.388649285,0,0,0,-1,-1,50888.96219,unknown,2,2023-02-16T17:50:34.681-08:00,2023-02-14T17:43:35.488-08:00,12145,1.164056,0.8021268,1.822169,9027.493,25,31,2023-02-16T17:50:32.119-08:00,698291434.3,0,-27.29,100.633,1,0.54,0
2023-02-16T17:50:36.685-08:00,1676598636,34.0684013,-118.4436315,118.1608,1.032956,1.189289,270.6002197,45.61503141,9.999719815,14.29777734,-9999,50890.96387,-0.233596802,0.808700562,0.2787323,50890.94385,-0.953511719,-2.987340149,-1.153592051,-0.035106197,-0.618975699,0.674837351,-0.084105849,0.051732242,0.099620342,XArbitraryZVertical,0.42084525,0.723247312,-0.453451197,-0.306895038,-0.062256459,0.91422534,0.400394797,0,0,0,-1,-1,50888.96219,unknown,2,2023-02-16T17:50:34.681-08:00,2023-02-14T17:43:35.488-08:00,12145,1.164056,0.8021268,1.822169,9027.493,25,31,2023-02-16T17:50:32.119-08:00,698291434.3,0,-27.29,100.633,1,0.54,0
2023-02-16T17:50:36.719-08:00,1676598636,34.0684013,-118.4436315,118.1608,1.032956,1.189289,270.6002197,45.61503141,9.999719815,14.29777734,-9999,50890.99765,-0.085647583,0.52822876,0.287597656,50890.97388,-1.003873051,-3.051917882,-1.166837276,0.403060883,-0.624610245,0.765954614,-0.198396355,-0.11081171,-0.112749755,XArbitraryZVertical,0.422781178,0.719025041,-0.464447376,-0.297569379,-0.035200454,0.919512033,0.391481876,0,0,0,-1,-1,50888.96219,unknown,2,2023-02-16T17:50:34.681-08:00,2023-02-14T17:43:35.488-08:00,12145,1.164056,0.8021268,1.822169,9027.493,25,31,2023-02-16T17:50:32.119-08:00,698291434.3,0,-27.29,100.633,1,0.54,0
2023-02-16T17:50:36.750-08:00,1676598636,34.0684013,-118.4436315,118.1608,1.032956,1.189289,270.6002197,45.61503141,9.999719815,14.29777734,-9999,50891.03141,0.049987793,0.701934814,0.059951782,50891.0039,-1.057808157,-3.116523702,-1.157559813,-1.168943286,-0.423416674,0.684682369,-0.09537223,-0.374215305,-0.089956194,XArbitraryZVertical,0.428291877,0.719229123,-0.466929238,-0.285048255,-0.010066013,0.915825903,0.401448935,0,0,0,-1,-1,50888.96219,unknown,2,2023-02-16T17:50:34.681-08:00,2023-02-14T17:43:35.488-08:00,12145,1.164056,0.8021268,1.822169,9027.493,25,31,2023-02-16T17:50:32.119-08:00,698291434.3,0,-27.29,100.633,1,0.54,0
2023-02-16T17:50:36.785-08:00,1676598636,34.0684013,-118.4436315,118.1608,1.032956,1.189289,270.6002197,45.61503141,9.999719815,14.29777734,-9999,50891.0652,-0.03086853,0.82208252,0.336212158,50891.03393,-1.104937083,3.109625669,-1.107345497,-1.698134661,-0.511427224,0.610799372,0.032434374,-0.253615439,-0.348802149,XArbitraryZVertical,0.439175219,0.728374759,-0.454667527,-0.264334673,0.014288014,0.894515157,0.446809322,0,0,0,-1,-1,50888.96219,unknown,2,2023-02-16T17:50:34.681-08:00,2023-02-14T17:43:35.488-08:00,12145,1.164056,0.8021268,1.822169,9027.493,25,31,2023-02-16T17:50:32.119-08:00,698291434.3,0,-27.29,100.633,1,0.54,0
2023-02-16T17:50:36.820-08:00,1676598636,34.0684013,-118.4436315,118.1608,1.032956,1.189289,270.6002197,45.61503141,9.999719815,14.29777734,-9999,50891.09898,0.043319702,0.660125732,0.372268677,50891.09398,-1.174254771,3.02746934,-1.080530093,-0.433187902,-0.162851468,0.588192821,-0.056488276,-0.305486441,0.016027927,XArbitraryZVertical,0.449875668,0.729047826,-0.454622351,-0.243761414,0.053619608,0.882207513,0.467797697,0,0,0,-1,-1,50888.96219,unknown,2,2023-02-16T17:50:34.681-08:00,2023-02-14T17:43:35.488-08:00,12145,1.164056,0.8021268,1.822169,9027.493,25,31,2023-02-16T17:50:32.119-08:00,698291434.3,0,-27.29,100.633,1,0.54,0
2023-02-16T17:50:36.855-08:00,1676598636,34.0684013,-118.4436315,118.1608,1.032956,1.189289,270.6002197,45.61503141,9.999719815,14.29777734,-9999,50891.13277,0.022277832,0.704437256,0.180496216,50891.124,-1.203701396,2.997110463,-1.054852988,-0.963176847,-0.196396783,0.595582187,-0.042041637,-0.098801196,-0.149912387,XArbitraryZVertical,0.458008637,0.730982557,-0.44910368,-0.23280543,0.071033314,0.869827688,0.488214821,0,0,0,-1,-1,50888.96219,unknown,2,2023-02-16T17:50:34.681-08:00,2023-02-14T17:43:35.488-08:00,12145,1.164056,0.8021268,1.822169,9027.493,25,31,2023-02-16T17:50:32.119-08:00,698291434.3,0,-27.29,100.633,1,0.54,0
2023-02-16T17:50:36.885-08:00,1676598636,34.0684013,-118.4436315,118.1608,1.032956,1.189289,270.6002197,45.61503141,9.999719815,14.29777734,-9999,50891.16652,0.145294189,0.860809326,0.264068604,50891.15403,-1.225597037,2.968608425,-1.023082469,-1.085124969,-0.465455681,0.44079861,-0.03546197,-0.033267498,-0.383784115,XArbitraryZVertical,0.465066235,0.734980142,-0.442276901,-0.218880383,0.089630634,0.853717208,0.512964845,0,0,0,-1,-1,50888.96219,unknown,2,2023-02-16T17:50:34.681-08:00,2023-02-14T17:43:35.488-08:00,12145,1.164056,0.8021268,1.822169,9027.493,25,31,2023-02-16T17:50:32.119-08:00,698291434.3,0,-27.29,100.633,1,0.54,0
2023-02-16T17:50:36.920-08:00,1676598636,34.0684013,-118.4436315,118.1608,1.032956,1.189289,270.6002197,45.61503141,9.999719815,14.29777734,-9999,50891.20031,0.083831787,1.053344727,0.35446167,50891.18405,-1.239195696,2.938096004,-0.988295683,-1.105167627,-0.819983006,0.428089023,0.024078637,0.063393652,-0.207998037,XArbitraryZVertical,0.46937638,0.740990644,-0.436049475,-0.201195105,0.111175269,0.835089624,0.538762629,0,0,0,-1,-1,50888.96219,unknown,2,2023-02-16T17:50:34.681-08:00,2023-02-14T17:43:35.488-08:00,12145,1.164056,0.8021268,1.822169,9027.493,25,31,2023-02-16T17:50:32.119-08:00,698291434.3,0,-27.29,100.633,1,0.54,0
2023-02-16T17:50:36.955-08:00,1676598636,34.0684013,-118.4436315,118.1608,1.032956,1.189289,270.6002197,45.61503141,9.999719815,14.29777734,-9999,50891.23409,0.092681885,1.11164856,0.360229492,50891.21408,-1.24490243,2.904359919,-0.954102335,-1.099039912,-1.145970941,0.294324011,-0.044624865,0.240754247,-0.219827652,XArbitraryZVertical,0.470149779,0.748352083,-0.431716946,-0.180413103,0.135918215,0.815794885,0.562143326,0,0,0,-1,-1,50888.96219,unknown,2,2023-02-16T17:50:34.681-08:00,2023-02-14T17:43:35.488-08:00,12145,1.164056,0.8021268,1.822169,9027.493,25,31,2023-02-16T17:50:32.119-08:00,698291436.9,0,-27.24,100.6315,1,0.54,0
2023-02-16T17:50:36.990-08:00,1676598636,34.0684013,-118.4436315,118.1608,1.032956,1.189289,270.6002197,45.61503141,9.999719815,14.29777734,-9999,50891.26788,0.217880249,1.240783691,0.4634552,50891.2441,-1.241267961,2.866955273,-0.920939899,-1.209269762,-1.473072171,0.092386499,-0.071412459,0.315477967,-0.222166896,XArbitraryZVertical,0.466589987,0.757292531,-0.429411302,-0.156230031,0.164094359,0.796170652,0.582396388,0,0,0,-1,-1,50888.96219,unknown,2,2023-02-16T17:50:34.681-08:00,2023-02-14T17:43:35.488-08:00,12145,1.164056,0.8021268,1.822169,9027.493,25,31,2023-02-16T17:50:32.119-08:00,698291436.9,0,-27.24,100.6315,1,0.54,0
2023-02-16T17:50:37.020-08:00,1676598636,34.0684013,-118.4436315,118.1608,1.032956,1.189289,270.6002197,45.61503141,9.999719815,14.29777734,-9999,50891.30164,0.190002441,1.186676025,0.462646484,50891.27413,-1.231483463,2.827328237,-0.897917587,0.204557896,-1.702430606,0.003724869,0.027484521,0.443845034,-0.100910068,XArbitraryZVertical,0.458471219,0.765612245,-0.431375503,-0.132503442,0.192653984,0.782030761,0.592715919,0,0,0,-1,-1,50888.96219,unknown,2,2023-02-16T17:50:34.681-08:00,2023-02-14T17:43:35.488-08:00,12145,1.164056,0.8021268,1.822169,9027.493,25,31,2023-02-16T17:50:32.119-08:00,698291436.9,0,-27.24,100.6315,1,0.54,0
2023-02-16T17:50:37.056-08:00,1676598636,34.0684013,-118.4436315,118.1608,1.032956,1.189289,270.6002197,45.61503141,9.999719815,14.29777734,-9999,50891.33542,0.164810181,0.201065063,0.990921021,50891.30415,-1.287390722,2.731346969,-0.952964698,4.127645969,-1.69865799,1.012760401,-0.039763659,0.449374735,-0.148115814,XArbitraryZVertical,0.447398999,0.751954545,-0.467808185,-0.124715814,0.23103258,0.815136433,0.531203032,0,0,0,-1,-1,50888.96219,unknown,2,2023-02-16T17:50:34.681-08:00,2023-02-14T17:43:35.488-08:00,12145,1.164056,0.8021268,1.822169,9027.493,25,31,2023-02-16T17:50:32.119-08:00,698291436.9,0,-27.24,100.6315,1,0.54,0
2023-02-16T17:50:37.093-08:00,1676598636,34.0684013,-118.4436315,118.1608,1.032956,1.189289,270.6002197,45.61503141,9.999719815,14.29777734,-9999,50891.36921,0.260391235,0.336090088,0.869125366,50891.3642,-1.912991916,2.118571163,-1.071915292,4.25412035,-0.009276163,4.189557552,-0.238548309,-0.742574871,0.633980334,XArbitraryZVertical,0.4685866,0.6364043,-0.60058206,-0.121314248,0.408439606,0.878118455,0.249167666,0,0,0,-1,-1,50888.96219,unknown,2,2023-02-16T17:50:34.681-08:00,2023-02-14T17:43:35.488-08:00,12145,1.164056,0.8021268,1.822169,9027.493,25,31,2023-02-16T17:50:32.119-08:00,698291436.9,0,-27.24,100.6315,1,0.54,0
2023-02-16T17:50:37.125-08:00,1676598637,34.06840106,-118.4436411,117.7963,0.9412302,1.170341,270.6002197,50.49593717,9.998480774,14.29864383,-9999,50891.40299,0.634857178,0.915023804,0.888015747,50891.39423,-2.28994171,1.814917938,-1.002750665,6.481919289,1.462467432,5.049150944,-0.013001144,-0.159253359,0.561830521,XArbitraryZVertical,0.50701075,0.554938521,-0.648179724,-0.121845735,0.522034407,0.84295398,0.130033329,0,0,0,-1,-1,50888.96219,unknown,2,2023-02-16T17:50:34.681-08:00,2023-02-14T17:43:35.488-08:00,12145,1.164056,0.8021268,1.822169,9027.493,25,31,2023-02-16T17:50:32.119-08:00,698291436.9,0,-27.24,100.6315,1,0.54,0
2023-02-16T17:50:37.155-08:00,1676598637,34.06840106,-118.4436411,117.7963,0.9412302,1.170341,270.6002197,50.49593717,9.998480774,14.29864383,-9999,50891.43675,1.372665405,0.679550171,0.268951416,50891.42425,-2.69515699,1.553154586,-0.867473604,7.575448036,2.814263821,5.152509212,0.140103519,-0.149217844,0.775920391,XArbitraryZVertical,0.553805259,0.433122482,-0.696407773,-0.143947429,0.646654844,0.762697399,-0.011409301,0,0,0,-1,-1,50888.96219,unknown,2,2023-02-16T17:50:34.681-08:00,2023-02-14T17:43:35.488-08:00,12145,1.164056,0.8021268,1.822169,9027.493,25,31,2023-02-16T17:50:32.119-08:00,698291436.9,0,-27.24,100.6315,1,0.54,0
2023-02-16T17:50:37.190-08:00,1676598637,34.06840106,-118.4436411,117.7963,0.9412302,1.170341,270.6002197,50.49593717,9.998480774,14.29864383,-9999,50891.47054,1.965560913,1.565689087,-0.201126099,50891.45428,-2.9281637,1.471220984,-0.723118684,4.090539455,2.694228411,3.576229334,0.852509379,0.273652911,0.165658295,XArbitraryZVertical,0.59614986,0.32762617,-0.7148234,-0.162154195,0.746031821,0.661726117,-0.074532874,0,0,0,-1,-1,50888.96219,unknown,2,2023-02-16T17:50:34.681-08:00,2023-02-14T17:43:35.488-08:00,12145,1.164056,0.8021268,1.822169,9027.493,25,31,2023-02-16T17:50:32.119-08:00,698291436.9,0,-27.24,100.6315,1,0.54,0
2023-02-16T17:50:37.225-08:00,1676598637,34.06840106,-118.4436411,117.7963,0.9412302,1.170341,270.6002197,50.49593717,9.998480774,14.29864383,-9999,50891.50432,1.667755127,1.386428833,-0.41229248,50891.4843,-3.04893259,1.466471356,-0.640098847,2.738545656,1.987455845,1.192544341,1.138999939,0.923278809,-0.115789652,XArbitraryZVertical,0.623783284,0.262933517,-0.71427756,-0.177673646,0.797676086,0.597274721,-0.083520763,0,0,0,-1,-1,50888.96219,unknown,2,2023-02-16T17:50:34.681-08:00,2023-02-14T17:43:35.488-08:00,12145,1.164056,0.8021268,1.822169,9027.493,25,31,2023-02-16T17:50:32.119-08:00,698291436.9,0,-27.24,100.6315,1,0.54,0
2023-02-16T17:50:37.269-08:00,1676598637,34.06840106,-118.4436411,117.7963,0.9412302,1.170341,270.6002197,50.49593717,9.998480774,14.29864383,-9999,50891.53811,0.729431152,0.404037476,-0.776870728,50891.51433,-3.127532336,1.455519935,-0.626455557,1.669118047,0.324285269,-0.409680307,0.863021255,0.800151646,-0.319112599,XArbitraryZVertical,0.631199752,0.234514215,-0.711759743,-0.199969582,0.804733753,0.586277068,-0.093179911,0,0,0,-1,-1,50888.96219,unknown,2,2023-02-16T17:50:34.681-08:00,2023-02-14T17:43:35.488-08:00,12145,1.164056,0.8021268,1.822169,9027.493,25,31,2023-02-16T17:50:32.119-08:00,698291436.9,0,-27.24,100.6315,1,0.54,0
2023-02-16T17:50:37.290-08:00,1676598637,34.06840106,-118.4436411,117.7963,0.9412302,1.170341,270.6002197,50.49593717,9.998480774,14.29864383,-9999,50891.57186,0.419113159,0.349487305,-0.30531311,50891.54435,3.120570856,1.426657938,-0.638632615,0.254350483,-0.433005124,-0.752891541,0.001984417,-0.145216167,-0.669627845,XArbitraryZVertical,0.623737977,0.230837392,-0.715763962,-0.212948342,0.794585466,0.596098125,-0.11533007,0,0,0,-1,-1,50888.96219,unknown,2,2023-02-16T17:50:34.681-08:00,2023-02-14T17:43:35.488-08:00,12145,1.164056,0.8021268,1.822169,9027.493,25,31,2023-02-16T17:50:32.119-08:00,698291436.9,0,-27.24,100.6315,1,0.54,0
2023-02-16T17:50:37.327-08:00,1676598637,34.06840106,-118.4436411,117.7963,0.9412302,1.170341,270.6002197,50.49593717,9.998480774,14.29864383,-9999,50891.60565,0.544921875,0.414001465,-0.137954712,50891.57438,3.124069625,1.418067323,-0.657262308,-0.672166407,-0.308765203,-0.763151646,-0.371777415,-0.405217648,-0.331707358,XArbitraryZVertical,0.618379569,0.239554089,-0.716505178,-0.216427194,0.782452285,0.610951781,-0.120441094,0,0,0,-1,-1,50888.96219,unknown,2,2023-02-16T17:50:34.681-08:00,2023-02-14T17:43:35.488-08:00,12149,1.163875,0.8021268,1.822169,9030.834,25,31,2023-02-16T17:50:34.681-08:00,698291436.9,0,-27.24,100.6315,1,0.54,0
2023-02-16T17:50:37.360-08:00,1676598637,34.06840106,-118.4436411,117.7963,0.9412302,1.170341,270.6002197,50.49593717,9.998480774,14.29864383,-9999,50891.63943,0.018035889,0.007568359,0.140670776,50891.63443,-3.112783126,1.421111468,-0.707460482,-1.578383565,-0.085023925,-0.746684551,-0.339086533,-0.314197123,-0.260288358,XArbitraryZVertical,0.608026485,0.271356979,-0.714250326,-0.215674959,0.751516402,0.649905801,-0.113338366,0,0,0,-1,-1,50888.96219,unknown,2,2023-02-16T17:50:34.681-08:00,2023-02-14T17:43:35.488-08:00,12149,1.163875,0.8021268,1.822169,9030.834,25,31,2023-02-16T17:50:34.681-08:00,698291436.9,0,-27.24,100.6315,1,0.54,0
2023-02-16T17:50:37.395-08:00,1676598637,34.06840106,-118.4436411,117.7963,0.9412302,1.170341,270.6002197,50.49593717,9.998480774,14.29864383,-9999,50891.67322,-0.086486816,0.159851074,0.467514038,50891.66446,-3.01901733,1.4913176,-0.727431017,-2.832261324,0.678883195,-0.127040267,-0.779851496,-0.740560412,0.295474529,XArbitraryZVertical,0.616874513,0.299693735,-0.700076029,-0.198854298,0.74452734,0.664953113,-0.059299,0,0,0,-1,-1,50888.96219,unknown,2,2023-02-16T17:50:34.681-08:00,2023-02-14T17:43:35.488-08:00,12149,1.163875,0.8021268,1.822169,9030.834,25,31,2023-02-16T17:50:34.681-08:00,698291436.9,0,-27.24,100.6315,1,0.54,0
2023-02-16T17:50:37.426-08:00,1676598637,34.06840106,-118.4436411,117.7963,0.9412302,1.170341,270.6002197,50.49593717,9.998480774,14.29864383,-9999,50891.70698,0.44972229,0.85295105,-0.209594727,50891.69448,-2.948371437,1.555833433,-0.731492249,-0.277921706,0.298329264,0.349867105,-0.410416007,0.178607285,0.179591596,XArbitraryZVertical,0.627745807,0.316808897,-0.686367408,-0.185653391,0.744095206,0.66798085,-0.011134649,0,0,0,-1,-1,50888.96219,unknown,2,2023-02-16T17:50:34.681-08:00,2023-02-14T17:43:35.488-08:00,12149,1.163875,0.8021268,1.822169,9030.834,25,31,2023-02-16T17:50:34.681-08:00,698291436.9,0,-27.24,100.6315,1,0.54,0
2023-02-16T17:50:37.461-08:00,1676598637,34.06840106,-118.4436411,117.7963,0.9412302,1.170341,270.6002197,50.49593717,9.998480774,14.29864383,-9999,50891.74076,0.482208252,0.585205078,-0.160751343,50891.72451,-2.954530528,1.560164135,-0.725566665,0.527937949,0.208079726,0.148708895,-0.310749054,0.307464004,-0.211894691,XArbitraryZVertical,0.631124912,0.312576909,-0.684994513,-0.186438964,0.748081148,0.663559496,-0.007954042,0,0,0,-1,-1,50888.96219,unknown,2,2023-02-16T17:50:34.681-08:00,2023-02-14T17:43:35.488-08:00,12149,1.163875,0.8021268,1.822169,9030.834,25,31,2023-02-16T17:50:34.681-08:00,698291436.9,0,-27.24,100.6315,1,0.54,0
2023-02-16T17:50:37.495-08:00,1676598637,34.06840106,-118.4436411,117.7963,0.9412302,1.170341,270.6002197,50.49593717,9.998480774,14.29864383,-9999,50891.77455,0.651245117,0.367492676,0.236907959,50891.75453,-2.959575132,1.56299984,-0.718977671,-0.346234411,0.224266008,0.352731198,-0.248031497,-0.136246324,-0.129143238,XArbitraryZVertical,0.633896575,0.308612726,-0.684251102,-0.186369945,0.752456605,0.658615708,-0.005866637,0,0,0,-1,-1,50888.96219,unknown,2,2023-02-16T17:50:34.681-08:00,2023-02-14T17:43:35.488-08:00,12149,1.163875,0.8021268,1.822169,9030.834,25,31,2023-02-16T17:50:34.681-08:00,698291436.9,0,-27.24,100.6315,1,0.54,0
2023-02-16T17:50:37.530-08:00,1676598637,34.06840106,-118.4436411,117.7963,0.9412302,1.170341,270.6002197,50.49593717,9.998480774,14.29864383,-9999,50891.80833,1.005233765,1.13520813,0.223098755,50891.78456,-2.926092174,1.593986585,-0.700390501,-1.351972818,0.508510411,0.984935343,-0.113139927,-0.277023673,0.219178438,XArbitraryZVertical,0.6421648,0.310626948,-0.67902648,-0.173373302,0.764384985,0.644516289,0.017729463,0,0,0,-1,-1,50888.96219,unknown,2,2023-02-16T17:50:34.681-08:00,2023-02-14T17:43:35.488-08:00,12149,1.163875,0.8021268,1.822169,9030.834,25,31,2023-02-16T17:50:34.681-08:00,698291436.9,0,-27.24,100.6315,1,0.54,0
2023-02-16T17:50:37.560-08:00,1676598637,34.06840106,-118.4436411,117.7963,0.9412302,1.170341,270.6002197,50.49593717,9.998480774,14.29864383,-9999,50891.84209,1.17829895,0.954910278,-0.014297485,50891.81458,-2.892088459,1.637774371,-0.669624271,-0.211412206,0.661902905,1.107739329,0.220876813,0.443944752,0.218826056,XArbitraryZVertical,0.656541645,0.30852986,-0.669956271,-0.15786387,0.782296956,0.620691419,0.052475214,0,0,0,-1,-1,50888.96219,unknown,2,2023-02-16T17:50:34.681-08:00,2023-02-14T17:43:35.488-08:00,12149,1.163875,0.8021268,1.822169,9030.834,25,31,2023-02-16T17:50:34.681-08:00,698291436.9,0,-27.24,100.6315,1,0.54,0
2023-02-16T17:50:37.596-08:00,1676598637,34.06840106,-118.4436411,117.7963,0.9412302,1.170341,270.6002197,50.49593717,9.998480774,14.29864383,-9999,50891.87588,1.319122314,1.243972778,0.094161987,50891.84461,-2.902984524,1.644846231,-0.633489917,0.300965399,0.190636143,1.249672771,0.311262965,0.612384498,-0.010173567,XArbitraryZVertical,0.666167837,0.29331555,-0.669168227,-0.149666653,0.803757608,0.591961086,0.059627198,0,0,0,-1,-1,50888.96219,unknown,2,2023-02-16T17:50:34.681-08:00,2023-02-14T17:43:35.488-08:00,12149,1.163875,0.8021268,1.822169,9030.834,25,31,2023-02-16T17:50:34.681-08:00,698291436.9,0,-27.24,100.6315,1,0.54,0
2023-02-16T17:50:37.631-08:00,1676598637,34.06840106,-118.4436411,117.7963,0.9412302,1.170341,270.6002197,50.49593717,9.998480774,14.29864383,-9999,50891.90966,1.327957153,1.109832764,-0.227859497,50891.90466,-2.96293828,1.614101123,-0.590138357,2.408098221,-0.189709991,0.296708196,0.517266333,0.962963641,-0.075703144,XArbitraryZVertical,0.670338468,0.261975007,-0.677839167,-0.150164546,0.830084622,0.556475997,0.035969131,0,0,0,-1,-1,50888.96219,unknown,2,2023-02-16T17:50:34.681-08:00,2023-02-14T17:43:35.488-08:00,12149,1.163875,0.8021268,1.822169,9030.834,25,31,2023-02-16T17:50:34.681-08:00,698291436.9,0,-27.24,100.6315,1,0.54,0
2023-02-16T17:50:37.665-08:00,1676598637,34.06840106,-118.4436411,117.7963,0.9412302,1.170341,270.6002197,50.49593717,9.998480774,14.29864383,-9999,50891.94345,1.046524048,0.144638062,0.020950317,50891.93468,-3.052788652,1.551953422,-0.594117209,2.089686155,-0.492380887,-0.262893975,0.465724051,0.034277678,-0.253475666,XArbitraryZVertical,0.659803138,0.23843922,-0.690904233,-0.174521845,0.82849586,0.559777439,-0.015613116,0,0,0,-1,-1,50888.96219,unknown,2,2023-02-16T17:50:34.681-08:00,2023-02-14T17:43:35.488-08:00,12149,1.163875,0.8021268,1.822169,9030.834,25,31,2023-02-16T17:50:34.681-08:00,698291436.9,0,-27.24,100.6315,1,0.54,0
2023-02-16T17:50:37.696-08:00,1676598637,34.06840106,-118.4436411,117.7963,0.9412302,1.170341,270.6002197,50.49593717,9.998480774,14.29864383,-9999,50891.9772,1.372680664,0.59703064,0.117721558,50891.96471,-3.104435066,1.512567231,-0.598406644,0.991897047,-0.220652059,-0.11708504,0.187174678,-0.443743587,0.179354966,XArbitraryZVertical,0.651638825,0.226550209,-0.698712257,-0.189322581,0.82483393,0.563326716,-0.048083689,0,0,0,-1,-1,50888.96219,unknown,2,2023-02-16T17:50:34.681-08:00,2023-02-14T17:43:35.488-08:00,12149,1.163875,0.8021268,1.822169,9030.834,25,31,2023-02-16T17:50:34.681-08:00,698291436.9,0,-27.24,100.6315,1,0.54,0
2023-02-16T17:50:37.731-08:00,1676598637,34.06840106,-118.4436411,117.7963,0.9412302,1.170341,270.6002197,50.49593717,9.998480774,14.29864383,-9999,50892.01099,1.127593994,0.285903931,-0.093490601,50891.99473,-3.138998128,1.483366328,-0.605257808,0.648539722,-0.451228261,-0.503863752,0.589477003,-0.014164627,0.110548981,XArbitraryZVertical,0.644545727,0.220584054,-0.704085955,-0.200415444,0.819214284,0.568974078,-0.07180696,0,0,0,-1,-1,50888.96219,unknown,2,2023-02-16T17:50:34.681-08:00,2023-02-14T17:43:35.488-08:00,12149,1.163875,0.8021268,1.822169,9030.834,25,31,2023-02-16T17:50:34.681-08:00,698291436.9,0,-27.24,100.6315,1,0.54,0
2023-02-16T17:50:37.765-08:00,1676598637,34.06840106,-118.4436411,117.7963,0.9412302,1.170341,270.6002197,50.49593717,9.998480774,14.29864383,-9999,50892.04477,0.581420898,0.384689331,0.065109253,50892.02476,3.13378507,1.46242653,-0.622743549,0.157218501,-0.417905539,-0.621231496,0.228753865,-0.265852571,0.039209485,XArbitraryZVertical,0.636548231,0.225563888,-0.707767361,-0.207346717,0.807516277,0.583265901,-0.087854564,0,0,0,-1,-1,50888.96219,unknown,2,2023-02-16T17:50:34.681-08:00,2023-02-14T17:43:35.488-08:00,12149,1.163875,0.8021268,1.822169,9030.834,25,31,2023-02-16T17:50:34.681-08:00,698291436.9,0,-27.24,100.6315,1,0.54,0
2023-02-16T17:50:37.800-08:00,1676598637,34.06840106,-118.4436411,117.7963,0.9412302,1.170341,270.6002197,50.49593717,9.998480774,14.29864383,-9999,50892.07856,0.462478638,0.216247559,-0.331359863,50892.05478,3.116759452,1.444181579,-0.634630662,0.478102893,-0.13887158,-0.331769317,-0.217423499,-0.208190858,0.166798651,XArbitraryZVertical,0.630816722,0.226330585,-0.710345964,-0.215065712,0.798844337,0.59288013,-0.101689458,0,0,0,-1,-1,50888.96219,unknown,2,2023-02-16T17:50:34.681-08:00,2023-02-14T17:43:35.488-08:00,12149,1.163875,0.8021268,1.822169,9030.834,25,31,2023-02-16T17:50:34.681-08:00,698291436.9,0,-27.24,100.6315,1,0.54,0
2023-02-16T17:50:37.831-08:00,1676598637,34.06840106,-118.4436411,117.7963,0.9412302,1.170341,270.6002197,50.49593717,9.998480774,14.29864383,-9999,50892.11232,0.304595947,0.299102783,-0.123947144,50892.08481,3.104155667,1.431111658,-0.640974327,0.129354119,-0.264823437,-0.190181389,-0.300145984,-0.345031738,-0.1967085,XArbitraryZVertical,0.626974163,0.226065676,-0.712305656,-0.220041716,0.793706715,0.597976685,-0.111595415,0,0,0,-1,-1,50888.96219,unknown,2,2023-02-16T17:50:34.681-08:00,2023-02-14T17:43:35.488-08:00,12149,1.163875,0.8021268,1.822169,9030.834,25,31,2023-02-16T17:50:34.681-08:00,698291436.9,0,-27.24,100.6315,1,0.54,0
2023-02-16T17:50:37.866-08:00,1676598637,34.06840106,-118.4436411,117.7963,0.9412302,1.170341,270.6002197,50.49593717,9.998480774,14.29864383,-9999,50892.1461,0.325363159,0.38961792,0.123321533,50892.11483,3.102650237,1.42166573,-0.645526661,0.096370816,-0.212609172,-0.138266429,-0.444793761,-0.37031126,-0.123810768,XArbitraryZVertical,0.62333625,0.228278245,-0.714521218,-0.220907985,0.789916992,0.601619184,-0.118681923,0,0,0,-1,-1,50888.96219,unknown,2,2023-02-16T17:50:34.681-08:00,2023-02-14T17:43:35.488-08:00,12149,1.163875,0.8021268,1.822169,9030.834,25,31,2023-02-16T17:50:34.681-08:00,698291436.9,0,-27.24,100.6315,1,0.54,0
2023-02-16T17:50:37.901-08:00,1676598637,34.06840106,-118.4436411,117.7963,0.9412302,1.170341,270.6002197,50.49593717,9.998480774,14.29864383,-9999,50892.17989,0.354232788,0.298309326,-0.261352539,50892.17488,3.06326464,1.404818888,-0.644080734,0.491110414,0.272638679,0.066597015,-0.405346751,-0.210387886,0.040013537,XArbitraryZVertical,0.621834809,0.217402017,-0.715487044,-0.232671879,0.788662851,0.600463629,-0.132115662,0,0,0,-1,-1,50888.96219,unknown,2,2023-02-16T17:50:34.681-08:00,2023-02-14T17:43:35.488-08:00,12149,1.163875,0.8021268,1.822169,9030.834,25,31,2023-02-16T17:50:34.681-08:00,698291436.9,0,-27.24,100.6315,1,0.54,0
2023-02-16T17:50:37.935-08:00,1676598637,34.06840106,-118.4436411,117.7963,0.9412302,1.170341,270.6002197,50.49593717,9.998480774,14.29864383,-9999,50892.21367,0.4115448,0.343048096,-0.112243652,50892.20491,3.06284693,1.409688417,-0.638792117,-0.435388952,0.094711222,0.2840693,-0.477188885,-0.367817461,-0.158175573,XArbitraryZVertical,0.624084738,0.214773363,-0.71462054,-0.231749983,0.792420089,0.596226156,-0.128781289,0,0,0,-1,-1,50888.96219,unknown,2,2023-02-16T17:50:34.681-08:00,2023-02-14T17:43:35.488-08:00,12149,1.163875,0.8021268,1.822169,9030.834,25,31,2023-02-16T17:50:34.681-08:00,698291436.9,0,-27.24,100.6315,1,0.54,0
2023-02-16T17:50:37.966-08:00,1676598637,34.06840106,-118.4436411,117.7963,0.9412302,1.170341,270.6002197,50.49593717,9.998480774,14.29864383,-9999,50892.24743,0.785522461,0.796722412,-0.18119812,50892.23493,3.07355498,1.420530991,-0.62964226,0.472880453,0.229858056,0.407300323,-0.289746344,0.108974457,0.157492638,XArbitraryZVertical,0.627615091,0.21354737,-0.713640883,-0.226303824,0.79913038,0.588855684,-0.120993637,0,0,0,-1,-1,50888.96219,unknown,2,2023-02-16T17:50:34.681-08:00,2023-02-14T17:43:35.488-08:00,12149,1.163875,0.8021268,1.822169,9030.834,25,31,2023-02-16T17:50:34.681-08:00,698291436.9,0,-27.24,100.6315,1,0.54,0
2023-02-16T17:50:38.001-08:00,1676598637,34.06840106,-118.4436411,117.7963,0.9412302,1.170341,270.6002197,50.49593717,9.998480774,14.29864383,-9999,50892.28122,1.002960205,0.504989624,-0.404388428,50892.26496,3.035304833,1.404362866,-0.612820932,1.227144003,0.084972709,0.384360284,0.030600905,0.170794249,-0.13201271,XArbitraryZVertical,0.627163782,0.197245438,-0.716499604,-0.233212441,0.806725025,0.575177372,-0.135519654,0,0,0,-1,-1,50888.96219,unknown,2,2023-02-16T17:50:34.681-08:00,2023-02-14T17:43:35.488-08:00,12149,1.163875,0.8021268,1.822169,9030.834,25,31,2023-02-16T17:50:34.681-08:00,698291436.9,0,-27.24,100.6315,1,0.54,0
2023-02-16T17:50:38.037-08:00,1676598637,34.06840106,-118.4436411,117.7963,0.9412302,1.170341,270.6002197,50.49593717,9.998480774,14.29864383,-9999,50892.315,1.099639893,1.004623413,-0.164428711,50892.29498,3.014839629,1.391262319,-0.599254091,0.113373764,-0.12379615,0.28344512,0.210785449,-0.031434,-0.243199334,XArbitraryZVertical,0.625438258,0.187346938,-0.719995006,-0.235234228,0.812484026,0.564026713,-0.147456214,0,0,0,-1,-1,50888.96219,unknown,2,2023-02-16T17:50:34.681-08:00,2023-02-14T17:43:35.488-08:00,12149,1.163875,0.8021268,1.822169,9030.834,25,31,2023-02-16T17:50:34.681-08:00,698291436.9,0,-27.24,100.6315,1,0.54,0
2023-02-16T17:50:38.081-08:00,1676598637,34.06840106,-118.4436411,117.7963,0.9412302,1.170341,270.6002197,50.49593717,9.998480774,14.29864383,-9999,50892.34879,1.341262817,0.674743652,-0.565170288,50892.32501,2.998350829,1.379436441,-0.591788056,1.050669193,-0.053156599,0.032780789,0.284844756,0.446777403,-0.006578192,XArbitraryZVertical,0.623203038,0.180811217,-0.722731009,-0.237876051,0.814795017,0.557845891,-0.157850549,0,0,0,-1,-1,50888.96219,unknown,2,2023-02-16T17:50:34.681-08:00,2023-02-14T17:43:35.488-08:00,12149,1.163875,0.8021268,1.822169,9030.834,25,31,2023-02-16T17:50:34.681-08:00,698291436.9,0,-27.24,100.6315,1,0.54,0
2023-02-16T17:50:38.102-08:00,1676598637,34.06840106,-118.4436411,117.7963,0.9412302,1.170341,270.6002197,50.49593717,9.998480774,14.29864383,-9999,50892.38254,1.512161255,0.433258057,-0.190551758,50892.35503,2.966892874,1.357728914,-0.587572351,0.353387296,-0.314057887,-0.050329976,0.453163862,0.155145645,-0.339904845,XArbitraryZVertical,0.618376512,0.172084404,-0.726237258,-0.246123467,0.813468099,0.554342151,-0.175994888,0,0,0,-1,-1,50888.96219,unknown,2,2023-02-16T17:50:34.681-08:00,2023-02-14T17:43:35.488-08:00,12149,1.163875,0.8021268,1.822169,9030.834,25,31,2023-02-16T17:50:34.681-08:00,698291436.9,0,-27.24,100.6315,1,0.54,0
2023-02-16T17:50:38.137-08:00,1676598638,34.06839907,-118.4436571,116.923,1.150023,1.010824,270.6002197,36.680831,10.00568371,14.2936044,-9999,50892.41633,1.342391968,0.407928467,0.082519531,50892.38506,2.980572665,1.350670708,-0.59076467,-1.12136817,-0.584014654,-0.010379165,0.744899452,-0.035466135,-0.161398232,XArbitraryZVertical,0.614419421,0.178371485,-0.729640019,-0.241449324,0.810474634,0.556996226,-0.181344777,0,0,0,-1,-1,50888.96219,unknown,2,2023-02-16T17:50:34.681-08:00,2023-02-14T17:43:35.488-08:00,12149,1.163875,0.8021268,1.822169,9030.834,25,31,2023-02-16T17:50:34.681-08:00,698291436.9,0,-27.24,100.6315,1,0.54,0
2023-02-16T17:50:38.171-08:00,1676598638,34.06839907,-118.4436571,116.923,1.150023,1.010824,270.6002197,36.680831,10.00568371,14.2936044,-9999,50892.45011,0.785064697,0.903625488,0.346542358,50892.44511,3.085519913,1.377301717,-0.607071173,-0.384176195,-0.270823866,0.06205928,0.250691414,0.099838853,0.390048265,XArbitraryZVertical,0.612675851,0.213687876,-0.731193425,-0.21052736,0.805994809,0.570464373,-0.157931581,0,0,0,-1,-1,50888.96219,unknown,2,2023-02-16T17:50:34.681-08:00,2023-02-14T17:43:35.488-08:00,12149,1.163875,0.8021268,1.822169,9030.834,25,31,2023-02-16T17:50:34.681-08:00,698291436.9,0,-27.24,100.6315,1,0.54,0
2023-02-16T17:50:38.205-08:00,1676598638,34.06839907,-118.4436571,116.923,1.150023,1.010824,270.6002197,36.680831,10.00568371,14.2936044,-9999,50892.4839,0.583435059,0.407836914,-0.28666687,50892.47514,3.074334161,1.370332845,-0.603506761,0.526494503,0.145676598,0.047736168,-0.156914294,0.181169808,0.271843314,XArbitraryZVertical,0.611605648,0.209676622,-0.732586566,-0.212817441,0.806862473,0.567533255,-0.163948491,0,0,0,-1,-1,50888.96219,unknown,2,2023-02-16T17:50:34.681-08:00,2023-02-14T17:43:35.488-08:00,12149,1.163875,0.8021268,1.822169,9030.834,25,31,2023-02-16T17:50:34.681-08:00,698291436.9,0,-27.24,100.6315,1,0.54,0
2023-02-16T17:50:38.236-08:00,1676598638,34.06839907,-118.4436571,116.923,1.150023,1.010824,270.6002197,36.680831,10.00568371,14.2936044,-9999,50892.51766,0.485702515,0.25,-0.094970703,50892.50516,3.077843662,1.374626893,-0.60104489,-0.78070128,-0.029484827,0.124257304,-0.250928283,-0.267073214,-0.154828236,XArbitraryZVertical,0.613011629,0.209379314,-0.731950532,-0.211247175,0.808926821,0.565504551,-0.160754099,0,0,0,-1,-1,50888.96219,unknown,2,2023-02-16T17:50:34.681-08:00,2023-02-14T17:43:35.488-08:00,12149,1.163875,0.8021268,1.822169,9030.834,25,31,2023-02-16T17:50:34.681-08:00,698291436.9,0,-27.24,100.6315,1,0.54,0
2023-02-16T17:50:38.271-08:00,1676598638,34.06839907,-118.4436571,116.923,1.150023,1.010824,270.6002197,36.680831,10.00568371,14.2936044,-9999,50892.55144,0.538391113,0.425613403,0.069351196,50892.53519,3.11861032,1.396343778,-0.603541407,-0.953248858,0.006367246,0.12455076,-0.348920047,-0.212474525,0.16708982,XArbitraryZVertical,0.616346142,0.220601618,-0.729159855,-0.199444818,0.81083405,0.567561805,-0.142904714,0,0,0,-1,-1,50888.96219,unknown,2,2023-02-16T17:50:34.681-08:00,2023-02-14T17:43:35.488-08:00,12149,1.163875,0.8021268,1.822169,9030.834,25,31,2023-02-16T17:50:34.681-08:00,698291436.9,0,-27.24,100.6315,1,0.54,0
2023-02-16T17:50:38.306-08:00,1676598638,34.06839907,-118.4436571,116.923,1.150023,1.010824,270.6002197,36.680831,10.00568371,14.2936044,-9999,50892.58523,0.53553772,0.148712158,0.01083374,50892.56521,3.138789791,1.41059397,-0.600345422,-0.355359674,0.178652003,0.25580129,-0.289824843,-0.215791285,0.20399709,XArbitraryZVertical,0.619588247,0.224272262,-0.72710304,-0.192700106,0.81457442,0.564927518,-0.131624714,0,0,0,-1,-1,50888.96219,unknown,2,2023-02-16T17:50:34.681-08:00,2023-02-14T17:43:35.488-08:00,12149,1.163875,0.8021268,1.822169,9030.834,25,31,2023-02-16T17:50:34.681-08:00,698291436.9,0,-27.24,100.6315,1,0.54,0
2023-02-16T17:50:38.341-08:00,1676598638,34.06839907,-118.4436571,116.923,1.150023,1.010824,270.6002197,36.680831,10.00568371,14.2936044,-9999,50892.61901,0.457214355,0.403747559,0.019546509,50892.59524,-3.121256383,1.429255952,-0.594633453,-0.881689429,0.152781725,0.293500096,-0.284532487,-0.411493123,0.12768805,XArbitraryZVertical,0.624301884,0.227639966,-0.724112046,-0.184631413,0.820070028,0.560205162,-0.116854407,0,0,0,-1,-1,50888.96219,unknown,2,2023-02-16T17:50:34.681-08:00,2023-02-14T17:43:35.488-08:00,12149,1.163875,0.8021268,1.822169,9030.834,25,31,2023-02-16T17:50:34.681-08:00,698291436.9,0,-27.24,100.6315,1,0.54,0
2023-02-16T17:50:38.371-08:00,1676598638,34.06839907,-118.4436571,116.923,1.150023,1.010824,270.6002197,36.680831,10.00568371,14.2936044,-9999,50892.65277,0.639892578,0.889633179,-0.057098389,50892.62526,-3.083671814,1.454403018,-0.590119769,-0.909900308,0.204060078,0.257597595,-0.343578041,-0.218585312,0.099114373,XArbitraryZVertical,0.629495865,0.235563127,-0.720052121,-0.172538927,0.825252056,0.556460559,-0.096489936,0,0,0,-1,-1,50888.96219,unknown,2,2023-02-16T17:50:34.681-08:00,2023-02-14T17:43:35.488-08:00,12149,1.163875,0.8021268,1.822169,9030.834,25,31,2023-02-16T17:50:34.681-08:00,698291436.9,0,-27.24,100.6315,1,0.54,0
2023-02-16T17:50:38.407-08:00,1676598638,34.06839907,-118.4436571,116.923,1.150023,1.010824,270.6002197,36.680831,10.00568371,14.2936044,-9999,50892.68656,0.649581909,0.266342163,-0.34487915,50892.65529,-3.070687475,1.47136646,-0.585914324,0.088802375,0.387118727,0.087481484,-0.265721798,0.372514606,0.105353177,XArbitraryZVertical,0.634508839,0.236736003,-0.716208798,-0.168521386,0.829091489,0.552961409,-0.082709193,0,0,0,-1,-1,50888.96219,unknown,2,2023-02-16T17:50:34.681-08:00,2023-02-14T17:43:35.488-08:00,12149,1.163875,0.8021268,1.822169,9030.834,25,31,2023-02-16T17:50:34.681-08:00,698291436.9,0,-27.24,100.6315,1,0.54,0
2023-02-16T17:50:38.441-08:00,1676598638,34.06839907,-118.4436571,116.923,1.150023,1.010824,270.6002197,36.680831,10.00568371,14.2936044,-9999,50892.72034,0.6222229,0.473175049,-0.098922729,50892.71534,-3.041308982,1.497824103,-0.584540126,-0.698499024,0.086651035,0.145478874,-0.202306271,-0.174786448,-0.112858005,XArbitraryZVertical,0.640572788,0.243444702,-0.710320049,-0.160769097,0.831746638,0.551815927,-0.060802363,0,0,0,-1,-1,50888.96219,unknown,2,2023-02-16T17:50:34.681-08:00,2023-02-14T17:43:35.488-08:00,12149,1.163875,0.8021268,1.822169,9030.834,25,31,2023-02-16T17:50:34.681-08:00,698291436.9,0,-27.24,100.6315,1,0.54,0
2023-02-16T17:50:38.476-08:00,1676598638,34.06839907,-118.4436571,116.923,1.150023,1.010824,270.6002197,36.680831,10.00568371,14.2936044,-9999,50892.75413,0.619171143,0.851394653,-0.01449585,50892.74536,-3.02819828,1.509053214,-0.579911704,0.130408406,0.156971738,0.148622632,-0.160539627,0.09142375,-0.040135153,XArbitraryZVertical,0.643492792,0.245171433,-0.708157096,-0.155953805,0.834917128,0.547950089,-0.051615991,0,0,0,-1,-1,50888.96219,unknown,2,2023-02-16T17:50:34.681-08:00,2023-02-14T17:43:35.488-08:00,12149,1.163875,0.8021268,1.822169,9030.834,25,31,2023-02-16T17:50:34.681-08:00,698291436.9,0,-27.24,100.6315,1,0.54,0
2023-02-16T17:50:38.507-08:00,1676598638,34.06839907,-118.4436571,116.923,1.150023,1.010824,270.6002197,36.680831,10.00568371,14.2936044,-9999,50892.78788,0.996566772,0.624130249,-0.40447998,50892.77539,-3.034138388,1.508371638,-0.580050922,-0.015810691,0.045466915,-0.043662854,-0.041348577,0.368544281,-0.452962041,XArbitraryZVertical,0.643960694,0.243360809,-0.707898292,-0.158019837,0.834805667,0.548066556,-0.052180283,0,0,0,-1,-1,50888.96219,unknown,2,2023-02-16T17:50:34.681-08:00,2023-02-14T17:43:35.488-08:00,12149,1.163875,0.8021268,1.822169,9030.834,25,31,2023-02-16T17:50:34.681-08:00,698291436.9,0,-27.24,100.6315,1,0.54,0
2023-02-16T17:50:38.541-08:00,1676598638,34.06839907,-118.4436571,116.923,1.150023,1.010824,270.6002197,36.680831,10.00568371,14.2936044,-9999,50892.82167,1.078567505,0.623397827,-0.194061279,50892.80541,-3.025995431,1.511782876,-0.585272613,-0.080659032,-0.087890014,-0.204200491,0.187313914,0.132845581,-0.365388036,XArbitraryZVertical,0.643553431,0.247502694,-0.706992346,-0.157299777,0.832110465,0.552426636,-0.049162794,0,0,0,-1,-1,50888.96219,unknown,2,2023-02-16T17:50:34.681-08:00,2023-02-14T17:43:35.488-08:00,12149,1.163875,0.8021268,1.822169,9030.834,25,31,2023-02-16T17:50:34.681-08:00,698291436.9,0,-27.24,100.6315,1,0.54,0
2023-02-16T17:50:38.576-08:00,1676598638,34.06839907,-118.4436571,116.923,1.150023,1.010824,270.6002197,36.680831,10.00568371,14.2936044,-9999,50892.85545,1.243942261,0.789337158,-0.227355957,50892.83544,-3.02319398,1.507809598,-0.595445771,-0.210710138,-0.325409085,-0.451201767,0.308020473,0.09538734,-0.159145892,XArbitraryZVertical,0.640578873,0.25219563,-0.707608565,-0.159204663,0.826256752,0.56087786,-0.052112143,0,0,0,-1,-1,50888.96219,unknown,2,2023-02-16T17:50:34.681-08:00,2023-02-14T17:43:35.488-08:00,12149,1.163875,0.8021268,1.822169,9030.834,25,31,2023-02-16T17:50:34.681-08:00,698291436.9,0,-27.24,100.6315,1,0.54,0
2023-02-16T17:50:38.611-08:00,1676598638,34.06839907,-118.4436571,116.923,1.150023,1.010824,270.6002197,36.680831,10.00568371,14.2936044,-9999,50892.88924,1.236999512,0.545837402,-0.405685425,50892.86546,-3.014738778,1.494958696,-0.613091788,-0.291894287,-0.829620779,-0.606904685,0.428420186,0.213938177,-0.165389955,XArbitraryZVertical,0.632770138,0.261952106,-0.71081108,-0.160407362,0.815521955,0.575398922,-0.061966095,0,0,0,-1,-1,50888.96219,unknown,2,2023-02-16T17:50:34.681-08:00,2023-02-14T17:43:35.488-08:00,12149,1.163875,0.8021268,1.822169,9030.834,25,31,2023-02-16T17:50:34.681-08:00,698291436.9,0,-27.24,100.6315,1,0.54,0
2023-02-16T17:50:38.641-08:00,1676598638,34.06839907,-118.4436571,116.923,1.150023,1.010824,270.6002197,36.680831,10.00568371,14.2936044,-9999,50892.923,1.344528198,0.348815918,-0.03616333,50892.89549,-3.003672275,1.466906246,-0.631482258,-0.639888763,-1.510147214,-0.535955131,0.416543663,-0.020120859,-0.317891657,XArbitraryZVertical,0.61893881,0.273975399,-0.718789977,-0.158723505,0.802801371,0.590341806,-0.083704457,0,0,0,-1,-1,50888.96219,unknown,2,2023-02-16T17:50:34.681-08:00,2023-02-14T17:43:35.488-08:00,12149,1.163875,0.8021268,1.822169,9030.834,25,31,2023-02-16T17:50:34.681-08:00,698291436.9,0,-27.24,100.6315,1,0.54,0
2023-02-16T17:50:38.677-08:00,1676598638,34.06839907,-118.4436571,116.923,1.150023,1.010824,270.6002197,36.680831,10.00568371,14.2936044,-9999,50892.95678,0.854949951,0.261245728,0.707550049,50892.92551,-2.96050714,1.435727611,-0.650685339,-1.838925958,-2.215634108,-0.416004837,0.56706202,-0.1803931,-0.123645782,XArbitraryZVertical,0.598949387,0.296121405,-0.729786911,-0.144854309,0.788421929,0.605731845,-0.107143492,0,0,0,-1,-1,50888.96219,unknown,2,2023-02-16T17:50:34.681-08:00,2023-02-14T17:43:35.488-08:00,12149,1.163875,0.8021268,1.822169,9030.834,25,31,2023-02-16T17:50:34.681-08:00,698291436.9,0,-27.24,100.6315,1,0.54,0
2023-02-16T17:50:38.711-08:00,1676598638,34.06839907,-118.4436571,116.923,1.150023,1.010824,270.6002197,36.680831,10.00568371,14.2936044,-9999,50892.99057,0.946960449,-0.332382202,0.451797485,50892.98556,-2.851888468,1.379610239,-0.654011661,-0.888252914,-1.492620707,1.150830865,0.084870517,-0.701118052,0.77820766,XArbitraryZVertical,0.560587367,0.332168275,-0.75234986,-0.096828472,0.779188991,0.608375132,-0.150812089,0,0,0,-1,-1,50888.96219,unknown,2,2023-02-16T17:50:34.681-08:00,2023-02-14T17:43:35.488-08:00,12149,1.163875,0.8021268,1.822169,9030.834,25,31,2023-02-16T17:50:34.681-08:00,698291436.9,0,-27.24,100.6315,1,0.54,0
2023-02-16T17:50:38.746-08:00,1676598638,34.06839907,-118.4436571,116.923,1.150023,1.010824,270.6002197,36.680831,10.00568371,14.2936044,-9999,50893.02435,0.858810425,-0.236099243,0.494888306,50893.01559,-2.789271306,1.371102787,-0.612347899,-1.862413764,-1.554174542,1.93877697,0.215966403,-1.069434643,0.387331486,XArbitraryZVertical,0.553425929,0.335495187,-0.760090492,-0.058523575,0.802038789,0.574790359,-0.162325442,0,0,0,-1,-1,50888.96219,unknown,2,2023-02-16T17:50:34.681-08:00,2023-02-14T17:43:35.488-08:00,12149,1.163875,0.8021268,1.822169,9030.834,25,31,2023-02-16T17:50:34.681-08:00,698291436.9,0,-27.24,100.6315,1,0.54,0
2023-02-16T17:50:38.777-08:00,1676598638,34.06839907,-118.4436571,116.923,1.150023,1.010824,270.6002197,36.680831,10.00568371,14.2936044,-9999,50893.05811,1.064666748,0.082290649,0.355316162,50893.04561,-2.701855415,1.382788843,-0.561135416,-2.079864502,-0.869347095,2.55644083,0.051202238,-0.623303831,0.750098586,XArbitraryZVertical,0.551406892,0.341804141,-0.760922127,-0.010858746,0.831732273,0.532147825,-0.158240736,0,0,0,-1,-1,50888.96219,unknown,2,2023-02-16T17:50:34.681-08:00,2023-02-14T17:43:35.488-08:00,12149,1.163875,0.8021268,1.822169,9030.834,25,31,2023-02-16T17:50:34.681-08:00,698291436.9,0,-27.24,100.6315,1,0.54,0
2023-02-16T17:50:38.812-08:00,1676598638,34.06839907,-118.4436571,116.923,1.150023,1.010824,270.6002197,36.680831,10.00568371,14.2936044,-9999,50893.09189,1.087661743,0.360046387,-0.158569336,50893.07564,-2.620063282,1.406454908,-0.48717006,-1.662676692,-0.282651722,3.118618965,0.227625489,-0.332629055,0.375633121,XArbitraryZVertical,0.558945825,0.33955105,-0.755428571,0.040152433,0.871754885,0.468127072,-0.144569293,0,0,0,-1,-1,50888.96219,unknown,2,2023-02-16T17:50:34.681-08:00,2023-02-14T17:43:35.488-08:00,12149,1.163875,0.8021268,1.822169,9030.834,25,31,2023-02-16T17:50:34.681-08:00,698291436.9,0,-27.24,100.6315,1,0.54,0
2023-02-16T17:50:38.847-08:00,1676598638,34.06839907,-118.4436571,116.923,1.150023,1.010824,270.6002197,36.680831,10.00568371,14.2936044,-9999,50893.12568,0.92388916,0.422363281,-0.378662109,50893.10566,-2.552680862,1.439560373,-0.395962763,-1.430060625,0.470883459,3.481813669,0.162715852,-0.005157709,-0.085045695,XArbitraryZVertical,0.575599637,0.329116785,-0.74316065,0.089885958,0.914691985,0.38569665,-0.120734401,0,0,0,-1,-1,50888.96219,unknown,2,2023-02-16T17:50:34.681-08:00,2023-02-14T17:43:35.488-08:00,12149,1.163875,0.8021268,1.822169,9030.834,25,31,2023-02-16T17:50:34.681-08:00,698291436.9,0,-27.24,100.6315,1,0.54,0
2023-02-16T17:50:38.881-08:00,1676598638,34.06839907,-118.4436571,116.923,1.150023,1.010824,270.6002197,36.680831,10.00568371,14.2936044,-9999,50893.15946,0.686630249,0.312286377,-0.129486084,50893.13569,-2.498998463,1.477726234,-0.293073185,-1.221273661,0.743293524,3.659847021,-0.029328108,0.133467555,-0.289689124,XArbitraryZVertical,0.598050665,0.312808046,-0.724941323,0.137646555,0.953217208,0.288895726,-0.088973053,0,0,0,-1,-1,50888.96219,unknown,2,2023-02-16T17:50:34.681-08:00,2023-02-14T17:43:35.488-08:00,12149,1.163875,0.8021268,1.822169,9030.834,25,31,2023-02-16T17:50:34.681-08:00,698291436.9,0,-27.24,100.6315,1,0.54,0
2023-02-16T17:50:38.911-08:00,1676598638,34.06839907,-118.4436571,116.923,1.150023,1.010824,270.6002197,36.680831,10.00568371,14.2936044,-9999,50893.19322,0.814651489,0.620910645,-0.122802734,50893.16571,-2.452925508,1.512593907,-0.187887337,-1.05806911,0.826547921,3.540657043,-0.268579364,0.151884988,-0.12147361,XArbitraryZVertical,0.620069722,0.294856955,-0.703396246,0.183865388,0.980737388,0.186783835,-0.05714583,0,0,0,-1,-1,50888.96219,unknown,2,2023-02-16T17:50:34.681-08:00,2023-02-14T17:43:35.488-08:00,12149,1.163875,0.8021268,1.822169,9030.834,25,31,2023-02-16T17:50:34.681-08:00,698291436.9,0,-27.24,100.6315,1,0.54,0
2023-02-16T17:50:38.947-08:00,1676598638,34.06839907,-118.4436571,116.923,1.150023,1.010824,270.6002197,36.680831,10.00568371,14.2936044,-9999,50893.22701,0.991744995,0.932876587,-0.289489746,50893.19574,-2.435110596,1.53945125,-0.092519094,0.233847022,0.711942375,2.800023794,-0.262598574,0.367589027,-0.03555131,XArbitraryZVertical,0.640782283,0.271652559,-0.684175843,0.217959426,0.995234013,0.092387162,-0.031205906,0,0,0,-1,-1,50888.96219,unknown,2,2023-02-16T17:50:34.681-08:00,2023-02-14T17:43:35.488-08:00,12149,1.163875,0.8021268,1.822169,9030.834,25,31,2023-02-16T17:50:34.681-08:00,698291436.9,0,-27.24,100.6315,1,0.54,0
2023-02-16T17:50:38.981-08:00,1676598638,34.06839907,-118.4436571,116.923,1.150023,1.010824,270.6002197,36.680831,10.00568371,14.2936044,-9999,50893.26079,0.917663574,0.71836853,-0.362380981,50893.25579,-2.496475192,1.558755088,0.048522609,1.041572452,0.179507807,1.828180075,-0.092744768,0.83250016,-0.336636603,XArbitraryZVertical,0.671863746,0.206363076,-0.6690616,0.241598681,0.998750567,-0.04850357,-0.012026776,0,0,0,-1,-1,50888.96219,unknown,2,2023-02-16T17:50:34.681-08:00,2023-02-14T17:43:35.488-08:00,12149,1.163875,0.8021268,1.822169,9030.834,25,31,2023-02-16T17:50:34.681-08:00,698291436.9,0,-27.24,100.6315,1,0.54,0
2023-02-16T17:50:39.016-08:00,1676598638,34.06839907,-118.4436571,116.923,1.150023,1.010824,270.6002197,36.680831,10.00568371,14.2936044,-9999,50893.29458,1.097610474,0.770599365,-0.391418457,50893.28581,-2.519694873,1.566586542,0.094914047,0.568277717,0.221502528,1.180030704,-0.014365375,0.812575579,-0.364247918,XArbitraryZVertical,0.681306668,0.183645888,-0.66361068,0.248427297,0.995490074,-0.094771601,-0.004190823,0,0,0,-1,-1,50888.96219,unknown,2,2023-02-16T17:50:34.681-08:00,2023-02-14T17:43:35.488-08:00,12149,1.163875,0.8021268,1.822169,9030.834,25,31,2023-02-16T17:50:34.681-08:00,698291436.9,0,-27.24,100.6315,1,0.54,0
2023-02-16T17:50:39.047-08:00,1676598638,34.06839907,-118.4436571,116.923,1.150023,1.010824,270.6002197,36.680831,10.00568371,14.2936044,-9999,50893.32834,1.115341187,0.707519531,-0.328842163,50893.31584,-2.532908861,1.571217382,0.118790247,0.353015035,-0.022892172,0.40380761,0.158597589,0.903835177,-0.376867771,XArbitraryZVertical,0.686138919,0.171529669,-0.660699069,0.251530734,0.992952645,-0.118511066,0.000418088,0,0,0,-1,-1,50888.96219,unknown,2,2023-02-16T17:50:34.681-08:00,2023-02-14T17:43:35.488-08:00,12149,1.163875,0.8021268,1.822169,9030.834,25,31,2023-02-16T17:50:34.681-08:00,698291436.9,0,-27.24,100.6315,1,0.54,0
2023-02-16T17:50:39.085-08:00,1676598638,34.06839907,-118.4436571,116.923,1.150023,1.010824,270.6002197,36.680831,10.00568371,14.2936044,-9999,50893.36212,1.201873779,0.698104858,-0.351821899,50893.34586,-2.54074225,1.570267014,0.118079253,0.142876968,-0.066041239,-0.433545768,0.116918266,0.806815743,-0.316597879,XArbitraryZVertical,0.686430922,0.168966788,-0.662093832,0.248785988,0.993036509,-0.117805056,-0.000525627,0,0,0,-1,-1,50888.96219,unknown,2,2023-02-16T17:50:34.681-08:00,2023-02-14T17:43:35.488-08:00,12149,1.163875,0.8021268,1.822169,9030.834,25,31,2023-02-16T17:50:34.681-08:00,698291436.9,0,-27.24,100.6315,1,0.54,0
2023-02-16T17:50:39.116-08:00,1676598638,34.06839907,-118.4436571,116.923,1.150023,1.010824,270.6002197,36.680831,10.00568371,14.2936044,-9999,50893.39591,1.351959229,0.562454224,-0.240005493,50893.37589,-2.542422759,1.566031601,0.093694661,-0.01070328,-0.212492064,-1.162324429,0.213885367,0.786779702,-0.351365864,XArbitraryZVertical,0.683056609,0.17624348,-0.666726829,0.240514581,0.995602608,-0.093557633,-0.004743809,0,0,0,-1,-1,50888.96219,unknown,2,2023-02-16T17:50:34.681-08:00,2023-02-14T17:43:35.488-08:00,12149,1.163875,0.8021268,1.822169,9030.834,25,31,2023-02-16T17:50:34.681-08:00,698291436.9,0,-27.24,100.6315,1,0.54,0
2023-02-16T17:50:39.152-08:00,1676598638,34.06839907,-118.4436571,116.923,1.150023,1.010824,270.6002197,36.680831,10.00568371,14.2936044,-9999,50893.42969,1.663040161,0.578414917,-0.305526733,50893.40591,-2.541837307,1.561318946,0.050325808,-0.023033556,-0.167792156,-1.68943572,0.353270113,0.612758815,-0.230540335,XArbitraryZVertical,0.677409187,0.190746359,-0.673298679,0.226719032,0.998689055,-0.050304566,-0.009465241,0,0,0,-1,-1,50888.96219,unknown,2,2023-02-16T17:50:34.681-08:00,2023-02-14T17:43:35.488-08:00,12149,1.163875,0.8021268,1.822169,9030.834,25,31,2023-02-16T17:50:34.681-08:00,698291436.9,0,-27.24,100.6315,1,0.54,0
2023-02-16T17:50:39.182-08:00,1676598639,34.06839667,-118.4436761,117.4918,1.462541,1.340127,270.6002197,36.93563536,9.993484138,14.30213649,-9999,50893.46345,1.324645996,0.594863892,-0.184646606,50893.43594,-2.542408583,1.548623259,-0.004897119,0.020192798,-0.64017725,-1.965357065,0.677854776,0.565079749,-0.270294309,XArbitraryZVertical,0.667559941,0.20803421,-0.683561842,0.209353032,0.99974221,0.004897099,-0.022170985,0,0,0,-1,-1,50888.96219,unknown,2,2023-02-16T17:50:34.681-08:00,2023-02-14T17:43:35.488-08:00,12149,1.163875,0.8021268,1.822169,9030.834,25,31,2023-02-16T17:50:34.681-08:00,698291436.9,0,-27.24,100.6315,1,0.54,0
2023-02-16T17:50:39.217-08:00,1676598639,34.06839667,-118.4436761,117.4918,1.462541,1.340127,270.6002197,36.93563536,9.993484138,14.30213649,-9999,50893.49723,1.512985229,0.606307983,-0.115844727,50893.46596,-2.546396895,1.527143255,-0.069972206,0.138258025,-0.667200148,-2.41241169,0.388529181,0.544830978,-0.193650305,XArbitraryZVertical,0.653296096,0.226799477,-0.697287849,0.188562215,0.996602476,0.069915123,-0.043532416,0,0,0,-1,-1,50888.96219,unknown,2,2023-02-16T17:50:34.681-08:00,2023-02-14T17:43:35.488-08:00,12149,1.163875,0.8021268,1.822169,9030.834,25,31,2023-02-16T17:50:34.681-08:00,698291436.9,0,-27.24,100.6315,1,0.54,0
2023-02-16T17:50:39.252-08:00,1676598639,34.06839667,-118.4436761,117.4918,1.462541,1.340127,270.6002197,36.93563536,9.993484138,14.30213649,-9999,50893.53102,1.671081543,0.632858276,-0.217437744,50893.52602,-2.627705539,1.4828438,-0.229122272,2.533586502,-0.550572395,-2.739258289,0.681005955,0.386936635,-0.084958196,XArbitraryZVertical,0.627461176,0.252033086,-0.728239903,0.111527441,0.970101714,0.227122828,-0.085543595,0,0,0,-1,-1,50888.96219,unknown,2,2023-02-16T17:50:34.681-08:00,2023-02-14T17:43:35.488-08:00,12149,1.163875,0.8021268,1.822169,9030.834,25,31,2023-02-16T17:50:34.681-08:00,698291436.9,0,-27.24,100.6315,1,0.54,0
2023-02-16T17:50:39.287-08:00,1676598639,34.06839667,-118.4436761,117.4918,1.462541,1.340127,270.6002197,36.93563536,9.993484138,14.30213649,-9999,50893.5648,1.428909302,0.503417969,-0.063735962,50893.55604,-2.729742191,1.432510546,-0.299702916,3.234601498,-1.030454278,-2.698852539,0.670563459,0.321691722,-0.069715142,XArbitraryZVertical,0.612465645,0.242971977,-0.750101658,0.056550917,0.946303546,0.295236379,-0.131700903,0,0,0,-1,-1,50888.96219,unknown,2,2023-02-16T17:50:34.681-08:00,2023-02-14T17:43:35.488-08:00,12149,1.163875,0.8021268,1.822169,9030.834,25,31,2023-02-16T17:50:34.681-08:00,698291436.9,0,-27.24,100.6315,1,0.54,0
2023-02-16T17:50:39.317-08:00,1676598639,34.06839667,-118.4436761,117.4918,1.462541,1.340127,270.6002197,36.93563536,9.993484138,14.30213649,-9999,50893.59856,1.145553589,0.236190796,0.181213379,50893.58607,-2.83788953,1.360985573,-0.366840752,2.547989368,-1.348760366,-2.892833948,0.393630803,0.040822148,0.227589801,XArbitraryZVertical,0.590058385,0.233714528,-0.772789613,0.002166006,0.912994444,0.358668178,-0.194417238,0,0,0,-1,-1,50888.96219,unknown,2,2023-02-16T17:50:34.681-08:00,2023-02-14T17:43:35.488-08:00,12149,1.163875,0.8021268,1.822169,9030.834,25,31,2023-02-16T17:50:34.681-08:00,698291436.9,0,-27.24,100.6315,1,0.54,0
2023-02-16T17:50:39.352-08:00,1676598639,34.06839667,-118.4436761,117.4918,1.462541,1.340127,270.6002197,36.93563536,9.993484138,14.30213649,-9999,50893.63235,0.891372681,-0.059677124,0.208755493,50893.61609,-2.923642001,1.283210592,-0.439745926,1.300521255,-1.568274975,-3.077059507,0.223472655,-0.26385963,0.461074501,XArbitraryZVertical,0.561605396,0.23721953,-0.791407507,-0.044724413,0.867698431,0.425709575,-0.256652534,0,0,0,-1,-1,50888.96219,unknown,2,2023-02-16T17:50:34.681-08:00,2023-02-14T17:43:35.488-08:00,12149,1.163875,0.8021268,1.822169,9030.834,25,31,2023-02-16T17:50:34.681-08:00,698291436.9,0,-27.24,100.6315,1,0.54,0
2023-02-16T17:50:39.387-08:00,1676598639,34.06839667,-118.4436761,117.4918,1.462541,1.340127,270.6002197,36.93563536,9.993484138,14.30213649,-9999,50893.66613,0.795959473,0.012359619,0.081558228,50893.64612,-2.979417273,1.211798538,-0.522163679,0.16933924,-1.43473351,-3.118853092,0.062048376,-0.565864801,0.503232956,XArbitraryZVertical,0.531207882,0.256045516,-0.803431802,-0.082196103,0.811486721,0.498756647,-0.304517746,0,0,0,-1,-1,50888.96219,unknown,2,2023-02-16T17:50:34.681-08:00,2023-02-14T17:43:35.488-08:00,12149,1.163875,0.8021268,1.822169,9030.834,25,31,2023-02-16T17:50:34.681-08:00,698291436.9,0,-27.24,100.6315,1,0.54,0
2023-02-16T17:50:39.422-08:00,1676598639,34.06839667,-118.4436761,117.4918,1.462541,1.340127,270.6002197,36.93563536,9.993484138,14.30213649,-9999,50893.69992,0.732040405,0.106521606,0.035095215,50893.67614,-3.019182736,1.149780382,-0.606032957,0.017954038,-1.249820948,-2.821276188,0.045819581,-0.557251811,0.417464525,XArbitraryZVertical,0.502680189,0.281708111,-0.809440878,-0.112953785,0.750139773,0.569611371,-0.335906327,0,0,0,-1,-1,50888.96219,unknown,2,2023-02-16T17:50:34.681-08:00,2023-02-14T17:43:35.488-08:00,12149,1.163875,0.8021268,1.822169,9030.834,25,31,2023-02-16T17:50:34.681-08:00,698291436.9,0,-27.24,100.6315,1,0.54,0
2023-02-16T17:50:39.452-08:00,1676598639,34.06839667,-118.4436761,117.4918,1.462541,1.340127,270.6002197,36.93563536,9.993484138,14.30213649,-9999,50893.73368,0.811660767,0.041534424,0.110961914,50893.70617,-3.071233903,1.083649836,-0.672508979,0.518465042,-1.105048656,-2.360855341,0.041006804,-0.514079213,0.398712993,XArbitraryZVertical,0.476575516,0.299641636,-0.814271871,-0.141605168,0.691262484,0.622950613,-0.366181344,0,0,0,-1,-1,50888.96219,unknown,2,2023-02-16T17:50:34.681-08:00,2023-02-14T17:43:35.488-08:00,12149,1.163875,0.8021268,1.822169,9030.834,25,31,2023-02-16T17:50:34.681-08:00,698291436.9,0,-27.24,100.6315,1,0.54,0
2023-02-16T17:50:39.488-08:00,1676598639,34.06839667,-118.4436761,117.4918,1.462541,1.340127,270.6002197,36.93563536,9.993484138,14.30213649,-9999,50893.76746,0.785675049,-0.156082153,0.171783447,50893.73619,-3.128812181,1.015198844,-0.721543084,0.285547763,-1.00084722,-1.911941409,0.136739135,-0.592840791,0.486259222,XArbitraryZVertical,0.452808602,0.311388192,-0.818735208,-0.166356196,0.637857974,0.660543978,-0.396003515,0,0,0,-1,-1,50888.96219,unknown,2,2023-02-16T17:50:34.681-08:00,2023-02-14T17:43:35.488-08:00,12149,1.163875,0.8021268,1.822169,9030.834,25,31,2023-02-16T17:50:34.681-08:00,698291436.9,0,-27.24,100.6315,1,0.54,0
2023-02-16T17:50:39.522-08:00,1676598639,34.06839667,-118.4436761,117.4918,1.462541,1.340127,270.6002197,36.93563536,9.993484138,14.30213649,-9999,50893.80125,0.714447021,-0.084487915,0.104003906,50893.79624,3.113636291,0.940320355,-0.798154682,-0.691501915,-0.407719195,-0.81937927,0.174297571,-0.847187996,0.561426222,XArbitraryZVertical,0.422231205,0.340538449,-0.818901205,-0.18749743,0.563831091,0.716069221,-0.411508739,0,0,0,-1,-1,50888.96219,unknown,2,2023-02-16T17:50:34.681-08:00,2023-02-14T17:43:35.488-08:00,12149,1.163875,0.8021268,1.822169,9030.834,25,31,2023-02-16T17:50:34.681-08:00,698291436.9,0,-27.24,100.6315,1,0.54,0
