loggingTime(txt),locationTimestamp_since1970(s),locationLatitude(WGS84),locationLongitude(WGS84),locationAltitude(m),locationSpeed(m/s),locationSpeedAccuracy(m/s),locationCourse(°),locationCourseAccuracy(°),locationVerticalAccuracy(m),locationHorizontalAccuracy(m),locationFloor(Z),accelerometerTimestamp_sinceReboot(s),accelerometerAccelerationX(G),accelerometerAccelerationY(G),accelerometerAccelerationZ(G),motionTimestamp_sinceReboot(s),motionYaw(rad),motionRoll(rad),motionPitch(rad),motionRotationRateX(rad/s),motionRotationRateY(rad/s),motionRotationRateZ(rad/s),motionUserAccelerationX(G),motionUserAccelerationY(G),motionUserAccelerationZ(G),motionAttitudeReferenceFrame(txt),motionQuaternionX(R),motionQuaternionY(R),motionQuaternionZ(R),motionQuaternionW(R),motionGravityX(G),motionGravityY(G),motionGravityZ(G),motionMagneticFieldX(µT),motionMagneticFieldY(µT),motionMagneticFieldZ(µT),motionHeading(°),motionMagneticFieldCalibrationAccuracy(Z),activityTimestamp_sinceReboot(s),activity(txt),activityActivityConfidence(Z),activityActivityStartDate(txt),pedometerStartDate(txt),pedometerNumberofSteps(N),pedometerAverageActivePace(s/m),pedometerCurrentPace(s/m),pedometerCurrentCadence(steps/s),pedometerDistance(m),pedometerFloorAscended(N),pedometerFloorDescended(N),pedometerEndDate(txt),altimeterTimestamp_sinceReboot(s),altimeterReset(bool),altimeterRelativeAltitude(m),altimeterPressure(kPa),batteryState(N),batteryLevel(R),label
2023-02-21T15:24:57.126-08:00,1677021897,34.06383412,-118.4510297,119.2665,0.8553944,2.60893,321.4646058,129.321818,8.916674498,14.9971247,-9999,338915.8047,0.143569946,-0.201004028,-1.223083496,338915.7747,2.598909739,0.023706386,0.213540267,-0.188954234,0.140407324,0.203966126,0.090405382,-0.09029448,0.013434887,XArbitraryZVertical,-0.017206398,-0.105819893,-0.958197268,-0.265262107,0.023165768,-0.211921081,-0.977012157,0,0,0,-1,-1,338915.5645,unknown,2,2023-02-21T15:24:56.883-08:00,2023-02-14T17:43:35.488-08:00,39762,1.286246,0.8953474,0,29524.43,73,92,2023-02-21T15:24:56.883-08:00,698714697,0,9.41,99.17246,1,0.53,0
2023-02-21T15:24:57.160-08:00,1677021897,34.06383412,-118.4510297,119.2665,0.8553944,2.60893,321.4646058,129.321818,8.916674498,14.9971247,-9999,338915.8397,0.233093262,-0.162338257,-1.214447021,338915.8347,2.637847933,0.040368976,0.206250817,-0.0891518,0.38096565,0.619498849,0.202776387,0.102405176,-0.283985257,XArbitraryZVertical,-0.006207472,-0.104677581,-0.96362395,-0.24583098,0.039502647,-0.20479162,-0.978008151,0,0,0,-1,-1,338915.5645,unknown,2,2023-02-21T15:24:56.883-08:00,2023-02-14T17:43:35.488-08:00,39762,1.286246,0.8953474,0,29524.43,73,92,2023-02-21T15:24:56.883-08:00,698714697,0,9.41,99.17246,1,0.53,0
2023-02-21T15:24:57.195-08:00,1677021897,34.06383412,-118.4510297,119.2665,0.8553944,2.60893,321.4646058,129.321818,8.916674498,14.9971247,-9999,338915.8748,0.207504272,-0.196014404,-1.097427368,338915.8647,2.655780953,0.045930791,0.202494526,-0.180220395,0.259382784,0.543353796,0.154806793,0.013521969,-0.153926671,XArbitraryZVertical,-0.002129319,-0.103576242,-0.965975936,-0.236976422,0.044976514,-0.201113507,-0.978534877,0,0,0,-1,-1,338915.5645,unknown,2,2023-02-21T15:24:56.883-08:00,2023-02-14T17:43:35.488-08:00,39762,1.286246,0.8953474,0,29524.43,73,92,2023-02-21T15:24:56.883-08:00,698714697,0,9.41,99.17246,1,0.53,0
2023-02-21T15:24:57.230-08:00,1677021897,34.06383412,-118.4510297,119.2665,0.8553944,2.60893,321.4646058,129.321818,8.916674498,14.9971247,-9999,338915.9098,0.193908691,-0.139282227,-1.157531738,338915.8948,2.67350782,0.049550428,0.198125907,-0.093429849,0.264580131,0.622606218,0.145225406,0.018716425,-0.139143884,XArbitraryZVertical,0.001049903,-0.101892039,-0.968238922,-0.228320537,0.048561204,-0.196832255,-0.979233801,0,0,0,-1,-1,338915.5645,unknown,2,2023-02-21T15:24:56.883-08:00,2023-02-14T17:43:35.488-08:00,39762,1.286246,0.8953474,0,29524.43,73,92,2023-02-21T15:24:56.883-08:00,698714697,0,9.41,99.17246,1,0.53,0
2023-02-21T15:24:57.266-08:00,1677021897,34.06383412,-118.4510297,119.2665,0.8553944,2.60893,321.4646058,129.321818,8.916674498,14.9971247,-9999,338915.9448,0.283157349,-0.18132019,-1.082397461,338915.9248,2.693372379,0.0556306,0.19757617,-0.070037544,0.342896312,0.646744311,0.15597479,0.042225257,-0.1786865,XArbitraryZVertical,0.005073618,-0.10227454,-0.97047292,-0.218395364,0.05452019,-0.196293235,-0.979028344,0,0,0,-1,-1,338915.5645,unknown,2,2023-02-21T15:24:56.883-08:00,2023-02-14T17:43:35.488-08:00,39762,1.286246,0.8953474,0,29524.43,73,92,2023-02-21T15:24:56.883-08:00,698714697,0,9.41,99.17246,1,0.53,0
2023-02-21T15:24:57.300-08:00,1677021897,34.06383412,-118.4510297,119.2665,0.8553944,2.60893,321.4646058,129.321818,8.916674498,14.9971247,-9999,338915.9799,0.123199463,-0.20300293,-0.99520874,338915.9548,2.713373034,0.059900513,0.195370598,-0.155425683,0.187441468,0.629622042,0.224431515,0.012809932,-0.103181064,XArbitraryZVertical,0.008408834,-0.101592735,-0.972691835,-0.208515952,0.058725819,-0.194130093,-0.979216397,0,0,0,-1,-1,338915.5645,unknown,2,2023-02-21T15:24:56.883-08:00,2023-02-14T17:43:35.488-08:00,39762,1.286246,0.8953474,0,29524.43,73,92,2023-02-21T15:24:56.883-08:00,698714697,0,9.41,99.17246,1,0.53,0
2023-02-21T15:24:57.336-08:00,1677021897,34.06383412,-118.4510297,119.2665,0.8553944,2.60893,321.4646058,129.321818,8.916674498,14.9971247,-9999,338916.0149,0.066879272,-0.177108765,-0.92767334,338915.9849,2.731647557,0.061650044,0.191919557,-0.143627509,0.178913623,0.567378044,0.085821435,-0.013266429,-0.018027723,XArbitraryZVertical,0.010543694,-0.10000661,-0.974700318,-0.199616464,0.060479816,-0.190743566,-0.979775012,0,0,0,-1,-1,338915.5645,unknown,2,2023-02-21T15:24:56.883-08:00,2023-02-14T17:43:35.488-08:00,39762,1.286246,0.8953474,0,29524.43,73,92,2023-02-21T15:24:56.883-08:00,698714697,0,9.41,99.17246,1,0.53,0
2023-02-21T15:24:57.370-08:00,1677021897,34.06383412,-118.4510297,119.2665,0.8553944,2.60893,321.4646058,129.321818,8.916674498,14.9971247,-9999,338916.0499,0.088043213,-0.189712524,-0.880508423,338916.0449,2.76181771,0.068589965,0.197263818,0.271918535,0.16387783,0.417277962,0.030769631,0.024356112,0.037748992,XArbitraryZVertical,0.014932783,-0.103085626,-0.977315222,-0.184404789,0.067207038,-0.195986956,-0.97830075,0,0,0,-1,-1,338915.5645,unknown,2,2023-02-21T15:24:56.883-08:00,2023-02-14T17:43:35.488-08:00,39762,1.286246,0.8953474,0,29524.43,73,92,2023-02-21T15:24:56.883-08:00,698714697,0,9.41,99.17246,1,0.53,0
2023-02-21T15:24:57.406-08:00,1677021897,34.06383412,-118.4510297,119.2665,0.8553944,2.60893,321.4646058,129.321818,8.916674498,14.9971247,-9999,338916.085,0.035522461,-0.207199097,-0.799789429,338916.0749,2.772879222,0.070729006,0.205949407,0.216966271,0.152470574,0.332735181,-0.016533792,0.002241373,0.168344915,XArbitraryZVertical,0.015742265,-0.107434873,-0.977901761,-0.178656246,0.069176599,-0.204496592,-0.976419866,0,0,0,-1,-1,338915.5645,unknown,2,2023-02-21T15:24:56.883-08:00,2023-02-14T17:43:35.488-08:00,39762,1.286246,0.8953474,0,29524.43,73,92,2023-02-21T15:24:56.883-08:00,698714697,0,9.41,99.17246,1,0.53,0
2023-02-21T15:24:57.441-08:00,1677021897,34.06383412,-118.4510297,119.2665,0.8553944,2.60893,321.4646058,129.321818,8.916674498,14.9971247,-9999,338916.12,0.104431152,-0.191635132,-0.880004883,338916.105,2.781409763,0.074191806,0.212782205,0.212387383,0.154756173,0.271320939,-0.009906299,0.011274785,0.148769498,XArbitraryZVertical,0.017273578,-0.111006768,-0.978296936,-0.174109572,0.072452061,-0.211180165,-0.974758267,0,0,0,-1,-1,338915.5645,unknown,2,2023-02-21T15:24:56.883-08:00,2023-02-14T17:43:35.488-08:00,39762,1.286246,0.8953474,0,29524.43,73,92,2023-02-21T15:24:56.883-08:00,698714697,0,9.41,99.17246,1,0.53,0
2023-02-21T15:24:57.476-08:00,1677021897,34.06383412,-118.4510297,119.2665,0.8553944,2.60893,321.4646058,129.321818,8.916674498,14.9971247,-9999,338916.155,0.065628052,-0.208435059,-0.851409912,338916.135,2.788606318,0.075877159,0.221014945,0.34758696,0.062467389,0.255514592,0.029311001,0.033688396,0.084913433,XArbitraryZVertical,0.017763182,-0.11511035,-0.978490838,-0.170263764,0.073960468,-0.219219998,-0.972868145,0,0,0,-1,-1,338915.5645,unknown,2,2023-02-21T15:24:56.883-08:00,2023-02-14T17:43:35.488-08:00,39762,1.286246,0.8953474,0,29524.43,73,92,2023-02-21T15:24:56.883-08:00,698714697,0,9.41,99.17246,1,0.53,0
2023-02-21T15:24:57.511-08:00,1677021897,34.06383412,-118.4510297,119.2665,0.8553944,2.60893,321.4646058,129.321818,8.916674498,14.9971247,-9999,338916.1901,0.057144165,-0.271438599,-0.829910278,338916.165,2.794944476,0.075317526,0.232865437,0.382688016,0.009436788,0.201893121,-0.007587351,0.022331551,0.118840754,XArbitraryZVertical,0.016814497,-0.120797159,-0.978408382,-0.166860236,0.073215373,-0.230766565,-0.970250666,0,0,0,-1,-1,338915.5645,unknown,2,2023-02-21T15:24:56.883-08:00,2023-02-14T17:43:35.488-08:00,39762,1.286246,0.8953474,0,29524.43,73,92,2023-02-21T15:24:56.883-08:00,698714697,0,9.41,99.17246,1,0.53,0
2023-02-21T15:24:57.546-08:00,1677021897,34.06383412,-118.4510297,119.2665,0.8553944,2.60893,321.4646058,129.321818,8.916674498,14.9971247,-9999,338916.2251,0.041534424,-0.209411621,-0.935516357,338916.1951,2.798860103,0.074163849,0.243609013,0.300979227,-0.043141,0.102943413,-0.021126874,-0.029697865,0.148317516,XArbitraryZVertical,0.015554145,-0.125916789,-0.978147959,-0.164710361,0.071908109,-0.241206646,-0.967806041,0,0,0,-1,-1,338915.5645,unknown,2,2023-02-21T15:24:56.883-08:00,2023-02-14T17:43:35.488-08:00,39762,1.286246,0.8953474,0,29524.43,73,92,2023-02-21T15:24:56.883-08:00,698714697,0,9.41,99.17246,1,0.53,0
2023-02-21T15:24:57.581-08:00,1677021897,34.06383412,-118.4510297,119.2665,0.8553944,2.60893,321.4646058,129.321818,8.916674498,14.9971247,-9999,338916.2601,0.068328857,-0.214981079,-0.97026062,338916.2551,2.80308464,0.069888295,0.265994763,0.472506702,-0.038792595,0.100378782,-0.017296217,0.072759926,-0.011919618,XArbitraryZVertical,0.011810294,-0.136464084,-0.977189656,-0.162290881,0.067375548,-0.262869179,-0.962476134,0,0,0,-1,-1,338915.5645,unknown,2,2023-02-21T15:24:56.883-08:00,2023-02-14T17:43:35.488-08:00,39762,1.286246,0.8953474,0,29524.43,73,92,2023-02-21T15:24:56.883-08:00,698714697,0,9.41,99.17246,1,0.53,0
2023-02-21T15:24:57.620-08:00,1677021897,34.06383412,-118.4510297,119.2665,0.8553944,2.60893,321.4646058,129.321818,8.916674498,14.9971247,-9999,338916.2952,0.112548828,-0.279022217,-0.952682495,338916.2851,2.804449259,0.067960444,0.279932459,0.4026317,-0.079597279,0.036996216,0.019802973,0.026046604,0.010796428,XArbitraryZVertical,0.009771945,-0.143096971,-0.976416348,-0.161365341,0.065264754,-0.276290745,-0.95885551,0,0,0,-1,-1,338915.5645,unknown,2,2023-02-21T15:24:56.883-08:00,2023-02-14T17:43:35.488-08:00,39762,1.286246,0.8953474,0,29524.43,73,92,2023-02-21T15:24:56.883-08:00,698714697,0,9.41,99.17246,1,0.53,0
2023-02-21T15:24:57.651-08:00,1677021897,34.06383412,-118.4510297,119.2665,0.8553944,2.60893,321.4646058,129.321818,8.916674498,14.9971247,-9999,338916.3302,0.068511963,-0.257141113,-0.944778442,338916.3152,2.804746007,0.06392415,0.288620025,0.171857744,-0.192382157,0.036561854,0.063883692,0.006461918,-0.001557112,XArbitraryZVertical,0.007082745,-0.147003535,-0.975874742,-0.161270346,0.061238367,-0.284629613,-0.956679583,0,0,0,-1,-1,338915.5645,unknown,2,2023-02-21T15:24:56.883-08:00,2023-02-14T17:43:35.488-08:00,39762,1.286246,0.8953474,0,29524.43,73,92,2023-02-21T15:24:56.883-08:00,698714697,0,9.41,99.17246,1,0.53,0
2023-02-21T15:24:57.686-08:00,1677021897,34.06383412,-118.4510297,119.2665,0.8553944,2.60893,321.4646058,129.321818,8.916674498,14.9971247,-9999,338916.3652,0.066848755,-0.269500732,-1.085983276,338916.3452,2.807171556,0.058981093,0.291476959,0.032376815,-0.008345538,0.151126817,-0.011172481,0.032957464,0.00318253,XArbitraryZVertical,0.00460747,-0.147990867,-0.975888049,-0.16037409,0.056460552,-0.287367195,-0.956154943,0,0,0,-1,-1,338915.5645,unknown,2,2023-02-21T15:24:56.883-08:00,2023-02-14T17:43:35.488-08:00,39762,1.286246,0.8953474,0,29524.43,73,92,2023-02-21T15:24:56.883-08:00,698714697,0,9.41,99.17246,1,0.53,0
2023-02-21T15:24:57.721-08:00,1677021897,34.06383412,-118.4510297,119.2665,0.8553944,2.60893,321.4646058,129.321818,8.916674498,14.9971247,-9999,338916.4003,0.207702637,-0.235244751,-1.208755493,338916.3752,2.813930216,0.060908573,0.290463844,-0.165956348,0.254837692,0.26939258,0.008527633,0.01689598,-0.129648805,XArbitraryZVertical,0.006132479,-0.147631848,-0.976489075,-0.156959726,0.058321107,-0.286396682,-0.956334472,0,0,0,-1,-1,338915.5645,unknown,2,2023-02-21T15:24:56.883-08:00,2023-02-14T17:43:35.488-08:00,39762,1.286246,0.8953474,0,29524.43,73,92,2023-02-21T15:24:56.883-08:00,698714697,0,9.41,99.17246,1,0.53,0
2023-02-21T15:24:57.756-08:00,1677021897,34.06383412,-118.4510297,119.2665,0.8553944,2.60893,321.4646058,129.321818,8.916674498,14.9971247,-9999,338916.4353,0.064483643,-0.199203491,-1.103515625,338916.4053,2.823648383,0.066531548,0.282635483,-0.368814886,0.215736359,0.283861101,0.131269425,0.041903317,-0.243064284,XArbitraryZVertical,0.010228524,-0.144207515,-0.97774818,-0.152013091,0.063844703,-0.27888754,-0.958199143,0,0,0,-1,-1,338915.5645,unknown,2,2023-02-21T15:24:56.883-08:00,2023-02-14T17:43:35.488-08:00,39762,1.286246,0.8953474,0,29524.43,73,92,2023-02-21T15:24:56.883-08:00,698714697,0,9.41,99.17246,1,0.53,0
2023-02-21T15:24:57.791-08:00,1677021897,34.06383412,-118.4510297,119.2665,0.8553944,2.60893,321.4646058,129.321818,8.916674498,14.9971247,-9999,338916.4703,0.093841553,-0.205627441,-1.044387817,338916.4653,2.834010405,0.074360274,0.271476693,-0.081930317,0.202991009,0.145233482,0.004356809,0.067272455,-0.119898438,XArbitraryZVertical,0.015679934,-0.139274122,-0.979201506,-0.146700872,0.071570903,-0.268154353,-0.960713744,0,0,0,-1,-1,338915.5645,unknown,2,2023-02-21T15:24:56.883-08:00,2023-02-14T17:43:35.488-08:00,39762,1.286246,0.8953474,0,29524.43,73,92,2023-02-21T15:24:56.883-08:00,698714697,0,9.41,99.17246,1,0.53,0
2023-02-21T15:24:57.826-08:00,1677021897,34.06383412,-118.4510297,119.2665,0.8553944,2.60893,321.4646058,129.321818,8.916674498,14.9971247,-9999,338916.5054,0.095581055,-0.149307251,-0.97769165,338916.4953,2.840108367,0.07932339,0.267896947,-0.169712096,0.250146538,0.202754289,0.010256194,0.090692818,-0.02997452,XArbitraryZVertical,0.018811063,-0.137831162,-0.979828489,-0.143474365,0.076413706,-0.264703989,-0.961297452,0,0,0,-1,-1,338915.5645,unknown,2,2023-02-21T15:24:56.883-08:00,2023-02-14T17:43:35.488-08:00,39762,1.286246,0.8953474,0,29524.43,73,92,2023-02-21T15:24:56.883-08:00,698714697,0,9.41,99.17246,1,0.53,0
2023-02-21T15:24:57.861-08:00,1677021897,34.06383412,-118.4510297,119.2665,0.8553944,2.60893,321.4646058,129.321818,8.916674498,14.9971247,-9999,338916.5404,0.166046143,-0.119628906,-0.953796387,338916.5254,2.847160967,0.086902501,0.262326228,-0.21465081,0.350685388,0.219101042,0.037193537,0.110966712,-0.016355574,XArbitraryZVertical,0.023432265,-0.13556746,-0.980594321,-0.139667793,0.083823904,-0.259327888,-0.962144792,0,0,0,-1,-1,338915.5645,unknown,2,2023-02-21T15:24:56.883-08:00,2023-02-14T17:43:35.488-08:00,39762,1.286246,0.8953474,0,29524.43,73,92,2023-02-21T15:24:56.883-08:00,698714697,0,9.41,99.17246,1,0.53,0
2023-02-21T15:24:57.896-08:00,1677021897,34.06383412,-118.4510297,119.2665,0.8553944,2.60893,321.4646058,129.321818,8.916674498,14.9971247,-9999,338916.5754,0.133041382,-0.06729126,-0.909835815,338916.5554,2.855355473,0.095687947,0.255986979,-0.257736623,0.374670357,0.252980173,0.072946087,0.133708805,0.027182043,XArbitraryZVertical,0.028764405,-0.132960315,-0.981426951,-0.135259617,0.092428647,-0.253200352,-0.962988317,0,0,0,-1,-1,338915.5645,unknown,2,2023-02-21T15:24:56.883-08:00,2023-02-14T17:43:35.488-08:00,39762,1.286246,0.8953474,0,29524.43,73,92,2023-02-21T15:24:56.883-08:00,698714697,0,9.41,99.17246,1,0.53,0
2023-02-21T15:24:57.931-08:00,1677021897,34.06383412,-118.4510297,119.2665,0.8553944,2.60893,321.4646058,129.321818,8.916674498,14.9971247,-9999,338916.6105,0.152267456,-0.04914856,-0.963378906,338916.5854,2.862686336,0.105538431,0.250736528,-0.09803541,0.411330909,0.15389806,0.030992821,0.180826277,0.053504109,XArbitraryZVertical,0.034466171,-0.130927946,-0.982069124,-0.131187519,0.102048546,-0.248117521,-0.963339925,0,0,0,-1,-1,338915.5645,unknown,2,2023-02-21T15:24:56.883-08:00,2023-02-14T17:43:35.488-08:00,39762,1.286246,0.8953474,0,29524.43,73,92,2023-02-21T15:24:56.883-08:00,698714697,0,9.41,99.17246,1,0.53,0
2023-02-21T15:24:57.967-08:00,1677021897,34.06383412,-118.4510297,119.2665,0.8553944,2.60893,321.4646058,129.321818,8.916674498,14.9971247,-9999,338916.6455,0.231750488,-0.083023071,-0.892288208,338916.6155,2.865129502,0.118112394,0.24970249,-0.052435916,0.428861797,0.015967298,0.02515991,0.207671747,-0.001006663,XArbitraryZVertical,0.040874947,-0.131193712,-0.982051138,-0.129201155,0.114183336,-0.247115687,-0.962234914,0,0,0,-1,-1,338915.5645,unknown,2,2023-02-21T15:24:56.883-08:00,2023-02-14T17:43:35.488-08:00,39762,1.286246,0.8953474,0,29524.43,73,92,2023-02-21T15:24:56.883-08:00,698714697,0,9.41,99.17246,1,0.53,0
2023-02-21T15:24:58.001-08:00,1677021897,34.06383412,-118.4510297,119.2665,0.8553944,2.60893,321.4646058,129.321818,8.916674498,14.9971247,-9999,338916.6805,0.181884766,-0.079681396,-0.88885498,338916.6755,2.866235355,0.138030302,0.239665491,-0.249822006,0.278464019,-0.016231753,0.09516111,0.146130145,0.088841438,XArbitraryZVertical,0.051450017,-0.127529554,-0.982224028,-0.127769556,0.133659676,-0.237377688,-0.96217823,0,0,0,-1,-1,338915.5645,unknown,2,2023-02-21T15:24:56.883-08:00,2023-02-14T17:43:35.488-08:00,39762,1.286246,0.8953474,0,29524.43,73,92,2023-02-21T15:24:56.883-08:00,698714697,0,9.41,99.17246,1,0.53,0
2023-02-21T15:24:58.036-08:00,1677021897,34.06383412,-118.4510297,119.2665,0.8553944,2.60893,321.4646058,129.321818,8.916674498,14.9971247,-9999,338916.7156,0.192626953,-0.052352905,-0.943206787,338916.7055,2.865320626,0.148608539,0.23354036,-0.11706423,0.384766787,-0.09578786,0.025802821,0.154320583,0.04942596,XArbitraryZVertical,0.05702992,-0.125229276,-0.982205788,-0.12781555,0.14404273,-0.231423214,-0.962130427,0,0,0,-1,-1,338915.5645,unknown,2,2023-02-21T15:24:56.883-08:00,2023-02-14T17:43:35.488-08:00,39762,1.286246,0.8953474,0,29524.43,73,92,2023-02-21T15:24:56.883-08:00,698714697,0,9.41,99.17246,1,0.53,0
2023-02-21T15:24:58.072-08:00,1677021897,34.06383412,-118.4510297,119.2665,0.8553944,2.60893,321.4646058,129.321818,8.916674498,14.9971247,-9999,338916.7506,0.141067505,-0.10786438,-0.869003296,338916.7356,2.861338392,0.160974169,0.23163273,0.032628857,0.374942541,-0.165653571,0.026648447,0.179228231,0.034791172,XArbitraryZVertical,0.062991239,-0.12520871,-0.981678228,-0.129084421,0.155999243,-0.229566947,-0.960709751,0,0,0,-1,-1,338915.5645,unknown,2,2023-02-21T15:24:56.883-08:00,2023-02-14T17:43:35.488-08:00,39762,1.286246,0.8953474,0,29524.43,73,92,2023-02-21T15:24:56.883-08:00,698714697,0,9.41,99.17246,1,0.53,0
2023-02-21T15:24:58.107-08:00,1677021898,34.06384003,-118.451042,120.1638,0.909797,1.817009,316.4526616,88.10762769,9.102080624,14.88532706,-9999,338916.7856,0.104263306,-0.132797241,-0.896942139,338916.7656,2.855603644,0.173806277,0.230443711,-0.099727802,0.371915579,-0.204118133,-0.028605863,0.10263136,0.097584248,XArbitraryZVertical,0.069016466,-0.125651043,-0.980942167,-0.131151922,0.168361068,-0.228409529,-0.958897114,0,0,0,-1,-1,338915.5645,unknown,2,2023-02-21T15:24:56.883-08:00,2023-02-14T17:43:35.488-08:00,39762,1.286246,0.8953474,0,29524.43,73,92,2023-02-21T15:24:56.883-08:00,698714697,0,9.41,99.17246,1,0.53,0
2023-02-21T15:24:58.142-08:00,1677021898,34.06384003,-118.451042,120.1638,0.909797,1.817009,316.4526616,88.10762769,9.102080624,14.88532706,-9999,338916.8207,0.107284546,-0.090911865,-0.981781006,338916.7956,2.850456962,0.185722481,0.224416856,-0.189414278,0.362965077,-0.19983691,-0.075762913,0.089740664,0.061216235,XArbitraryZVertical,0.074997945,-0.123677501,-0.980471396,-0.133247823,0.180026203,-0.222537875,-0.958158374,0,0,0,-1,-1,338915.5645,unknown,2,2023-02-21T15:24:56.883-08:00,2023-02-14T17:43:35.488-08:00,39762,1.286246,0.8953474,0,29524.43,73,92,2023-02-21T15:24:56.883-08:00,698714697,0,9.41,99.17246,1,0.53,0
2023-02-21T15:24:58.176-08:00,1677021898,34.06384003,-118.451042,120.1638,0.909797,1.817009,316.4526616,88.10762769,9.102080624,14.88532706,-9999,338916.8557,0.203582764,-0.158355713,-0.974349976,338916.8257,2.845876871,0.198083518,0.219271949,-0.062900111,0.378092378,-0.15835017,-0.092438877,0.125584871,-0.010635793,XArbitraryZVertical,0.081173634,-0.122171771,-0.97992614,-0.135016512,0.192078739,-0.21751906,-0.956969798,0,0,0,-1,-1,338915.5645,unknown,2,2023-02-21T15:24:56.883-08:00,2023-02-14T17:43:35.488-08:00,39762,1.286246,0.8953474,0,29524.43,73,92,2023-02-21T15:24:56.883-08:00,698714697,0,9.41,99.17246,1,0.53,0
2023-02-21T15:24:58.211-08:00,1677021898,34.06384003,-118.451042,120.1638,0.909797,1.817009,316.4526616,88.10762769,9.102080624,14.88532706,-9999,338916.8907,0.190338135,-0.157592773,-0.986297607,338916.8857,2.840085938,0.217422396,0.20718375,-0.409001797,0.222297996,-0.099049434,0.006017089,0.042084724,-0.005347908,XArbitraryZVertical,0.09125336,-0.117837451,-0.979238103,-0.137403966,0.211100206,-0.205704704,-0.955574334,0,0,0,-1,-1,338915.5645,unknown,2,2023-02-21T15:24:56.883-08:00,2023-02-14T17:43:35.488-08:00,39762,1.286246,0.8953474,0,29524.43,73,92,2023-02-21T15:24:56.883-08:00,698714697,0,9.41,99.17246,1,0.53,0
2023-02-21T15:24:58.246-08:00,1677021898,34.06384003,-118.451042,120.1638,0.909797,1.817009,316.4526616,88.10762769,9.102080624,14.88532706,-9999,338916.9258,0.255187988,-0.082687378,-1.104263306,338916.9157,2.839575554,0.224979601,0.196289287,-0.150196791,0.245697796,-0.086415365,-0.005637303,0.078271002,-0.101415455,XArbitraryZVertical,0.095793657,-0.113065297,-0.979298629,-0.137890943,0.218802556,-0.195031226,-0.956079602,0,0,0,-1,-1,338915.5645,unknown,2,2023-02-21T15:24:56.883-08:00,2023-02-14T17:43:35.488-08:00,39762,1.286246,0.8953474,0,29524.43,73,92,2023-02-21T15:24:56.883-08:00,698714697,0,9.41,99.17246,1,0.53,0
2023-02-21T15:24:58.281-08:00,1677021898,34.06384003,-118.451042,120.1638,0.909797,1.817009,316.4526616,88.10762769,9.102080624,14.88532706,-9999,338916.9608,0.228881836,-0.192062378,-0.948532104,338916.9458,2.836696184,0.231735933,0.19704521,0.157225549,0.137586296,-0.082683787,0.032558784,0.088777959,-0.113954127,XArbitraryZVertical,0.098876803,-0.114041651,-0.978740677,-0.138868916,0.225223184,-0.195772573,-0.954435766,0,0,0,-1,-1,338915.5645,unknown,2,2023-02-21T15:24:56.883-08:00,2023-02-14T17:43:35.488-08:00,39762,1.286246,0.8953474,0,29524.43,73,92,2023-02-21T15:24:56.883-08:00,698714697,0,9.41,99.17246,1,0.53,0
2023-02-21T15:24:58.316-08:00,1677021898,34.06384003,-118.451042,120.1638,0.909797,1.817009,316.4526616,88.10762769,9.102080624,14.88532706,-9999,338916.9958,0.23991394,-0.168640137,-0.962615967,338916.9758,2.833563311,0.234950751,0.196552903,-0.182142034,0.031119313,-0.081511222,0.005390823,-0.001624882,0.010471523,XArbitraryZVertical,0.100310928,-0.114181976,-0.978381305,-0.140250165,0.228312761,-0.195289776,-0.95380038,0,0,0,-1,-1,338915.5645,unknown,2,2023-02-21T15:24:56.883-08:00,2023-02-14T17:43:35.488-08:00,39762,1.286246,0.8953474,0,29524.43,73,92,2023-02-21T15:24:56.883-08:00,698714697,0,9.41,99.17246,1,0.53,0
2023-02-21T15:24:58.352-08:00,1677021898,34.06384003,-118.451042,120.1638,0.909797,1.817009,316.4526616,88.10762769,9.102080624,14.88532706,-9999,338917.0309,0.225860596,-0.129333496,-0.986801147,338917.0058,2.833962002,0.234731525,0.188377171,-0.248054892,-0.01981657,-0.015856845,0.011446536,0.018624902,-0.007244587,XArbitraryZVertical,0.100891005,-0.110160423,-0.978732705,-0.140598236,0.228467375,-0.187265024,-0.95537138,0,0,0,-1,-1,338915.5645,unknown,2,2023-02-21T15:24:56.883-08:00,2023-02-14T17:43:35.488-08:00,39762,1.286246,0.8953474,0,29524.43,73,92,2023-02-21T15:24:56.883-08:00,698714697,0,9.41,99.17246,1,0.53,0
2023-02-21T15:24:58.387-08:00,1677021898,34.06384003,-118.451042,120.1638,0.909797,1.817009,316.4526616,88.10762769,9.102080624,14.88532706,-9999,338917.0659,0.227035522,-0.179016113,-0.940124512,338917.0359,2.836068954,0.23476095,0.185098797,-0.059041515,0.056134388,0.10616307,0.000595704,0.071449056,-0.041312099,XArbitraryZVertical,0.101285732,-0.108456913,-0.978999687,-0.139777453,0.228637055,-0.184043646,-0.955956578,0,0,0,-1,-1,338915.5645,unknown,2,2023-02-21T15:24:56.883-08:00,2023-02-14T17:43:35.488-08:00,39762,1.286246,0.8953474,0,29524.43,73,92,2023-02-21T15:24:56.883-08:00,698714697,0,9.41,99.17246,1,0.53,0
2023-02-21T15:24:58.422-08:00,1677021898,34.06384003,-118.451042,120.1638,0.909797,1.817009,316.4526616,88.10762769,9.102080624,14.88532706,-9999,338917.1009,0.295700073,-0.115997314,-0.988540649,338917.0959,2.848178159,0.23982844,0.175818548,-0.185556576,0.11001832,0.142450809,0.033704057,0.034899503,-0.002183974,XArbitraryZVertical,0.105143004,-0.103649008,-0.979896469,-0.134181388,0.233874053,-0.174914122,-0.956403673,0,0,0,-1,-1,338915.5645,unknown,2,2023-02-21T15:24:56.883-08:00,2023-02-14T17:43:35.488-08:00,39762,1.286246,0.8953474,0,29524.43,73,92,2023-02-21T15:24:56.883-08:00,698714697,0,9.41,99.17246,1,0.53,0
2023-02-21T15:24:58.457-08:00,1677021898,34.06384003,-118.451042,120.1638,0.909797,1.817009,316.4526616,88.10762769,9.102080624,14.88532706,-9999,338917.136,0.274765015,-0.146072388,-0.948898315,338917.1259,2.85358142,0.239467926,0.167077006,-0.096454345,0.008167924,0.167220429,0.088825136,0.062479988,-0.047205448,XArbitraryZVertical,0.105910635,-0.099068484,-0.98056749,-0.132120337,0.233882979,-0.166300774,-0.957936764,0,0,0,-1,-1,338915.5645,unknown,2,2023-02-21T15:24:56.883-08:00,2023-02-14T17:43:35.488-08:00,39762,1.286246,0.8953474,0,29524.43,73,92,2023-02-21T15:24:56.883-08:00,698714697,0,9.41,99.17246,1,0.53,0
2023-02-21T15:24:58.492-08:00,1677021898,34.06384003,-118.451042,120.1638,0.909797,1.817009,316.4526616,88.10762769,9.102080624,14.88532706,-9999,338917.171,0.218383789,-0.154342651,-0.910430908,338917.156,2.859512066,0.237618158,0.16442857,-0.186903983,0.016791042,0.148964167,-0.002248287,0.009941101,0.031744719,XArbitraryZVertical,0.105493693,-0.09733891,-0.981138533,-0.129473505,0.232213467,-0.16368863,-0.958792448,0,0,0,-1,-1,338915.5645,unknown,2,2023-02-21T15:24:56.883-08:00,2023-02-14T17:43:35.488-08:00,39762,1.286246,0.8953474,0,29524.43,73,92,2023-02-21T15:24:56.883-08:00,698714697,0,9.41,99.17246,1,0.53,0
2023-02-21T15:24:58.527-08:00,1677021898,34.06384003,-118.451042,120.1638,0.909797,1.817009,316.4526616,88.10762769,9.102080624,14.88532706,-9999,338917.206,0.246826172,-0.11895752,-0.97744751,338917.186,2.865229232,0.239559594,0.157870764,-0.217615113,0.039455272,0.166176468,-0.012736022,0.00095056,0.044063509,XArbitraryZVertical,0.107202422,-0.093950294,-0.981607182,-0.126996944,0.234324127,-0.157215804,-0.95936197,0,0,0,-1,-1,338915.5645,unknown,2,2023-02-21T15:24:56.883-08:00,2023-02-14T17:43:35.488-08:00,39762,1.286246,0.8953474,0,29524.43,73,92,2023-02-21T15:24:56.883-08:00,698714697,0,9.41,99.17246,1,0.53,0
2023-02-21T15:24:58.562-08:00,1677021898,34.06384003,-118.451042,120.1638,0.909797,1.817009,316.4526616,88.10762769,9.102080624,14.88532706,-9999,338917.2411,0.219436646,-0.135803223,-0.953872681,338917.216,2.871468002,0.243803934,0.152490565,-0.084863096,0.028720004,0.221283168,0.008231536,0.032942757,-0.018281758,XArbitraryZVertical,0.109962264,-0.091243782,-0.981929467,-0.124086437,0.238594607,-0.151900262,-0.959165752,0,0,0,-1,-1,338915.5645,unknown,2,2023-02-21T15:24:56.883-08:00,2023-02-14T17:43:35.488-08:00,39762,1.286246,0.8953474,0,29524.43,73,92,2023-02-21T15:24:56.883-08:00,698714697,0,9.41,99.17246,1,0.53,0
2023-02-21T15:24:58.610-08:00,1677021898,34.06384003,-118.451042,120.1638,0.909797,1.817009,316.4526616,88.10762769,9.102080624,14.88532706,-9999,338917.2761,0.213150024,-0.16809082,-0.945602417,338917.2461,2.878325035,0.242975379,0.152314229,-0.09620209,-0.015762573,0.213187322,-0.008939683,0.01944755,6.90E-05,XArbitraryZVertical,0.109879734,-0.090729818,-0.982399926,-0.120768219,0.237806246,-0.151725978,-0.959389091,0,0,0,-1,-1,338915.5645,unknown,2,2023-02-21T15:24:56.883-08:00,2023-02-14T17:43:35.488-08:00,39762,1.286246,0.8953474,0,29524.43,73,92,2023-02-21T15:24:56.883-08:00,698714697,0,9.41,99.17246,1,0.53,0
2023-02-21T15:24:58.632-08:00,1677021898,34.06384003,-118.451042,120.1638,0.909797,1.817009,316.4526616,88.10762769,9.102080624,14.88532706,-9999,338917.3111,0.198623657,-0.190353394,-0.923248291,338917.3061,2.896422031,0.23672522,0.14261923,-0.263222486,-0.091960013,0.312710375,-0.019172505,-0.038344696,0.041953385,XArbitraryZVertical,0.108251142,-0.084622498,-0.984075723,-0.112763966,0.232139379,-0.142136231,-0.962241471,0,0,0,-1,-1,338915.5645,unknown,2,2023-02-21T15:24:56.883-08:00,2023-02-14T17:43:35.488-08:00,39762,1.286246,0.8953474,0,29524.43,73,92,2023-02-21T15:24:56.883-08:00,698714697,0,9.41,99.17246,1,0.53,0
2023-02-21T15:24:58.667-08:00,1677021898,34.06384003,-118.451042,120.1638,0.909797,1.817009,316.4526616,88.10762769,9.102080624,14.88532706,-9999,338917.3462,0.183013916,-0.19039917,-0.962387085,338917.3361,2.908055761,0.232599262,0.137321666,-0.259554863,-0.062447786,0.356998295,-0.050755858,-0.03283301,0.020184636,XArbitraryZVertical,0.107036983,-0.081166325,-0.98508415,-0.107536818,0.228337601,-0.136890486,-0.963910222,0,0,0,-1,-1,338915.5645,unknown,2,2023-02-21T15:24:56.883-08:00,2023-02-14T17:43:35.488-08:00,39762,1.286246,0.8953474,0,29524.43,73,92,2023-02-21T15:24:56.883-08:00,698714697,0,9.41,99.17246,1,0.53,0
2023-02-21T15:24:58.702-08:00,1677021898,34.06384003,-118.451042,120.1638,0.909797,1.817009,316.4526616,88.10762769,9.102080624,14.88532706,-9999,338917.3812,0.16696167,-0.218276978,-0.902008057,338917.3662,2.92129442,0.228647064,0.130457724,-0.399762869,-0.091792561,0.386422843,-0.033266708,-0.07163316,0.018355668,XArbitraryZVertical,0.106023696,-0.076877835,-0.986168799,-0.101586036,0.224733949,-0.130087987,-0.965697527,0,0,0,-1,-1,338915.5645,unknown,2,2023-02-21T15:24:56.883-08:00,2023-02-14T17:43:35.488-08:00,39762,1.286246,0.8953474,0,29524.43,73,92,2023-02-21T15:24:56.883-08:00,698714697,0,9.41,99.17246,1,0.53,0
2023-02-21T15:24:58.737-08:00,1677021898,34.06384003,-118.451042,120.1638,0.909797,1.817009,316.4526616,88.10762769,9.102080624,14.88532706,-9999,338917.4162,0.142776489,-0.209487915,-0.944854736,338917.3962,2.935845346,0.223988143,0.121414544,-0.360910028,-0.083556399,0.419037879,-0.060313225,-0.090034649,0.067542493,XArbitraryZVertical,0.104773151,-0.071426924,-0.987356889,-0.095116323,0.220484719,-0.121116459,-0.967841566,0,0,0,-1,-1,338915.5645,unknown,2,2023-02-21T15:24:56.883-08:00,2023-02-14T17:43:35.488-08:00,39762,1.286246,0.8953474,0,29524.43,73,92,2023-02-21T15:24:56.883-08:00,698714697,0,9.41,99.17246,1,0.53,0
2023-02-21T15:24:58.773-08:00,1677021898,34.06384003,-118.451042,120.1638,0.909797,1.817009,316.4526616,88.10762769,9.102080624,14.88532706,-9999,338917.4513,0.184585571,-0.21055603,-0.942825317,338917.4262,2.950945031,0.220780999,0.113816573,-0.37891826,-0.032509662,0.448228627,-0.07479836,-0.095916897,0.024558902,XArbitraryZVertical,0.104108138,-0.066743341,-0.988395549,-0.088209454,0.217574835,-0.113570996,-0.969413638,0,0,0,-1,-1,338915.5645,unknown,2,2023-02-21T15:24:56.883-08:00,2023-02-14T17:43:35.488-08:00,39762,1.286246,0.8953474,0,29524.43,73,92,2023-02-21T15:24:56.883-08:00,698714697,0,9.41,99.17246,1,0.53,0
2023-02-21T15:24:58.807-08:00,1677021898,34.06384003,-118.451042,120.1638,0.909797,1.817009,316.4526616,88.10762769,9.102080624,14.88532706,-9999,338917.4863,0.150665283,-0.190856934,-0.895706177,338917.4563,2.967519789,0.217031968,0.103528276,-0.523218691,-0.098672569,0.473345906,-0.026587695,-0.110600024,0.021513581,XArbitraryZVertical,0.103277446,-0.060643789,-0.989515437,-0.080717013,0.214179218,-0.103343435,-0.971312225,0,0,0,-1,-1,338915.5645,unknown,2,2023-02-21T15:24:56.883-08:00,2023-02-14T17:43:35.488-08:00,39762,1.286246,0.8953474,0,29524.43,73,92,2023-02-21T15:24:56.883-08:00,698714697,0,9.41,99.17246,1,0.53,0
2023-02-21T15:24:58.842-08:00,1677021898,34.06384003,-118.451042,120.1638,0.909797,1.817009,316.4526616,88.10762769,9.102080624,14.88532706,-9999,338917.5213,0.028564453,-0.190109253,-0.816726685,338917.5163,3.005890897,0.206329427,0.077026193,-0.585748911,-0.029204946,0.576874375,-0.149558395,-0.107452393,0.117153227,XArbitraryZVertical,0.100072052,-0.045187607,-0.991927379,-0.063432297,0.204261124,-0.076950051,-0.975887358,0,0,0,-1,-1,338915.5645,unknown,2,2023-02-21T15:24:56.883-08:00,2023-02-14T17:43:35.488-08:00,39762,1.286246,0.8953474,0,29524.43,73,92,2023-02-21T15:24:56.883-08:00,698714697,0,9.41,99.17246,1,0.53,0
2023-02-21T15:24:58.878-08:00,1677021898,34.06384003,-118.451042,120.1638,0.909797,1.817009,316.4526616,88.10762769,9.102080624,14.88532706,-9999,338917.5564,0.081359863,-0.096389771,-0.880691528,338917.5463,3.026669271,0.206062694,0.062534595,-0.61557734,0.096167557,0.57752192,-0.15624921,-0.11012882,0.144518077,XArbitraryZVertical,0.100843355,-0.036948844,-0.99275446,-0.053887605,0.204207554,-0.062493846,-0.976930797,0,0,0,-1,-1,338915.5645,unknown,2,2023-02-21T15:24:56.883-08:00,2023-02-14T17:43:35.488-08:00,39762,1.286246,0.8953474,0,29524.43,73,92,2023-02-21T15:24:56.883-08:00,698714697,0,9.41,99.17246,1,0.53,0
2023-02-21T15:24:58.912-08:00,1677021898,34.06384003,-118.451042,120.1638,0.909797,1.817009,316.4526616,88.10762769,9.102080624,14.88532706,-9999,338917.5914,0.043243408,-0.131973267,-0.913635254,338917.5764,3.046101471,0.209079668,0.050050396,-0.480644464,0.182309836,0.491075128,-0.125558466,-0.03734231,0.070854187,XArbitraryZVertical,0.103010222,-0.029836396,-0.993220937,-0.044843921,0.207299784,-0.050029501,-0.976997375,0,0,0,-1,-1,338915.5645,unknown,2,2023-02-21T15:24:56.883-08:00,2023-02-14T17:43:35.488-08:00,39762,1.286246,0.8953474,0,29524.43,73,92,2023-02-21T15:24:56.883-08:00,698714697,0,9.41,99.17246,1,0.53,0
2023-02-21T15:24:58.947-08:00,1677021898,34.06384003,-118.451042,120.1638,0.909797,1.817009,316.4526616,88.10762769,9.102080624,14.88532706,-9999,338917.6264,0.095977783,-0.106079102,-0.905456543,338917.6064,3.061591064,0.215838082,0.04042742,-0.345656782,0.322754353,0.383423299,-0.176469833,-0.096409135,0.067384064,XArbitraryZVertical,0.106797945,-0.024385116,-0.993271246,-0.037574037,0.21399115,-0.040416408,-0.975999117,0,0,0,-1,-1,338915.5645,unknown,2,2023-02-21T15:24:56.883-08:00,2023-02-14T17:43:35.488-08:00,39762,1.286246,0.8953474,0,29524.43,73,92,2023-02-21T15:24:56.883-08:00,698714697,0,9.41,99.17246,1,0.53,0
2023-02-21T15:24:58.982-08:00,1677021898,34.06384003,-118.451042,120.1638,0.909797,1.817009,316.4526616,88.10762769,9.102080624,14.88532706,-9999,338917.6615,0.075332642,-0.059310913,-1.030212402,338917.6364,3.074242412,0.225902697,0.033279674,-0.360626668,0.353458345,0.339537293,-0.127884433,-0.072805554,0.068596125,XArbitraryZVertical,0.112075184,-0.020317992,-0.992990117,-0.031575234,0.223862186,-0.033273529,-0.974052668,0,0,0,-1,-1,338915.5645,unknown,2,2023-02-21T15:24:56.883-08:00,2023-02-14T17:43:35.488-08:00,39762,1.286246,0.8953474,0,29524.43,73,92,2023-02-21T15:24:56.883-08:00,698714697,0,9.41,99.17246,1,0.53,0
2023-02-21T15:24:59.018-08:00,1677021898,34.06384003,-118.451042,120.1638,0.909797,1.817009,316.4526616,88.10762769,9.102080624,14.88532706,-9999,338917.6965,0.1197052,-0.046035767,-1.026275635,338917.6665,3.085180621,0.237405781,0.025189234,-0.269274861,0.440596014,0.227266192,-0.165313691,-0.051229432,-0.033758581,XArbitraryZVertical,0.11801515,-0.015840256,-0.992531403,-0.026510717,0.235107362,-0.02518657,-0.971643031,0,0,0,-1,-1,338915.5645,unknown,2,2023-02-21T15:24:56.883-08:00,2023-02-14T17:43:35.488-08:00,39762,1.286246,0.8953474,0,29524.43,73,92,2023-02-21T15:24:56.883-08:00,698714697,0,9.41,99.17246,1,0.53,0
2023-02-21T15:24:59.052-08:00,1677021898,34.06384003,-118.451042,120.1638,0.909797,1.817009,316.4526616,88.10762769,9.102080624,14.88532706,-9999,338917.7315,0.093917847,-0.060760498,-1.052078247,338917.7265,3.092345428,0.259479607,0.013775824,-0.385089189,0.30775544,-0.104670607,-0.153434396,-0.069659658,-0.044188201,XArbitraryZVertical,0.129165695,-0.010013209,-0.991293364,-0.023522761,0.256553262,-0.013775389,-0.966431916,0,0,0,-1,-1,338915.5645,unknown,2,2023-02-21T15:24:56.883-08:00,2023-02-14T17:43:35.488-08:00,39762,1.286246,0.8953474,0,29524.43,73,92,2023-02-21T15:24:56.883-08:00,698714697,0,9.41,99.17246,1,0.53,0
2023-02-21T15:24:59.094-08:00,1677021898,34.06384003,-118.451042,120.1638,0.909797,1.817009,316.4526616,88.10762769,9.102080624,14.88532706,-9999,338917.7666,0.161468506,0.046707153,-1.162963867,338917.7565,3.089557871,0.269118297,0.003825169,-0.114965931,0.358914167,-0.231787518,-0.15928176,-0.002644554,-0.14392674,XArbitraryZVertical,0.134058508,-0.005384576,-0.990630035,-0.025522758,0.265879631,-0.00382516,-0.963998675,0,0,0,-1,-1,338915.5645,unknown,2,2023-02-21T15:24:56.883-08:00,2023-02-14T17:43:35.488-08:00,39762,1.286246,0.8953474,0,29524.43,73,92,2023-02-21T15:24:56.883-08:00,698714697,0,9.41,99.17246,1,0.53,0
2023-02-21T15:24:59.124-08:00,1677021898,34.06384003,-118.451042,120.1638,0.909797,1.817009,316.4526616,88.10762769,9.102080624,14.88532706,-9999,338917.8016,0.261856079,-0.028991699,-1.126281738,338917.7866,3.083302575,0.281591365,0.001750185,-0.018591294,0.45052138,-0.190807089,-0.081503689,0.022776809,-0.204365075,XArbitraryZVertical,0.14024608,-0.004955436,-0.989687285,-0.028729786,0.277884275,-0.001750185,-0.960612953,0,0,0,-1,-1,338915.5645,unknown,2,2023-02-21T15:24:56.883-08:00,2023-02-14T17:43:35.488-08:00,39762,1.286246,0.8953474,0,29524.43,73,92,2023-02-21T15:24:56.883-08:00,698714697,0,9.41,99.17246,1,0.53,0
2023-02-21T15:24:59.158-08:00,1677021898,34.06384003,-118.451042,120.1638,0.909797,1.817009,316.4526616,88.10762769,9.102080624,14.88532706,-9999,338917.8366,0.329711914,0.036239624,-1.188766479,338917.8166,3.079051845,0.295145459,-0.005568377,-0.357272953,0.442687273,-0.225468472,-0.016079009,-0.036543678,-0.173793912,XArbitraryZVertical,0.147051333,-0.001844583,-0.98863066,-0.031334539,0.290874511,0.005568348,-0.956745028,0,0,0,-1,-1,338915.5645,unknown,2,2023-02-21T15:24:56.883-08:00,2023-02-14T17:43:35.488-08:00,39762,1.286246,0.8953474,0,29524.43,73,92,2023-02-21T15:24:56.883-08:00,698714697,0,9.41,99.17246,1,0.53,0
2023-02-21T15:24:59.192-08:00,1677021899,34.06383397,-118.4510368,121.3564,0.5217364,1.701913,313.40406,87.94536611,9.215212072,14.81555601,-9999,338917.8717,0.331497192,0.009765625,-1.171844482,338917.8466,3.074208104,0.307808506,-0.01739597,-0.241097331,0.408932775,-0.294187069,0.026786834,0.018844539,-0.235910833,XArbitraryZVertical,0.153494142,0.003426425,-0.987536932,-0.034619076,0.30292502,0.017395092,-0.952855587,0,0,0,-1,-1,338915.5645,unknown,2,2023-02-21T15:24:56.883-08:00,2023-02-14T17:43:35.488-08:00,39762,1.286246,0.8953474,0,29524.43,73,92,2023-02-21T15:24:56.883-08:00,698714697,0,9.41,99.17246,1,0.53,0
2023-02-21T15:24:59.227-08:00,1677021899,34.06383397,-118.4510368,121.3564,0.5217364,1.701913,313.40406,87.94536611,9.215212072,14.81555601,-9999,338917.9067,0.368362427,-0.005737305,-1.067596436,338917.8767,3.067106871,0.319910908,-0.024733438,-0.102259554,0.414131671,-0.290051401,0.01346451,-0.005687937,-0.23437649,XArbitraryZVertical,0.159606191,0.006270065,-0.986400999,-0.038724434,0.314385802,0.024730915,-0.948973119,0,0,0,-1,-1,338915.5645,unknown,2,2023-02-21T15:24:56.883-08:00,2023-02-14T17:43:35.488-08:00,39762,1.286246,0.8953474,0,29524.43,73,92,2023-02-21T15:24:56.883-08:00,698714697,0,9.41,99.17246,1,0.53,0
2023-02-21T15:24:59.262-08:00,1677021899,34.06383397,-118.4510368,121.3564,0.5217364,1.701913,313.40406,87.94536611,9.215212072,14.81555601,-9999,338917.9417,0.388778687,0.03263855,-1.026977539,338917.9367,3.051798829,0.342021312,-0.034787039,-0.054908022,0.336398274,-0.253431857,0.048554152,-0.0228629,-0.101536334,XArbitraryZVertical,0.170750374,0.00948491,-0.984138522,-0.047177329,0.335189104,0.034780022,-0.94150871,0,0,0,-1,-1,338915.5645,unknown,2,2023-02-21T15:24:56.883-08:00,2023-02-14T17:43:35.488-08:00,39762,1.286246,0.8953474,0,29524.43,73,92,2023-02-21T15:24:56.883-08:00,698714697,0,9.41,99.17246,1,0.53,0
2023-02-21T15:24:59.297-08:00,1677021899,34.06383397,-118.4510368,121.3564,0.5217364,1.701913,313.40406,87.94536611,9.215212072,14.81555601,-9999,338917.9768,0.391464233,0.081634521,-0.993164063,338917.9668,3.045492297,0.350683045,-0.037313457,0.030309934,0.257975608,-0.221036226,0.05106315,0.007708639,-0.077079415,XArbitraryZVertical,0.175095083,0.009970993,-0.983203102,-0.050537615,0.343300223,0.0373048,-0.938484609,0,0,0,-1,-1,338915.5645,unknown,2,2023-02-21T15:24:56.883-08:00,2023-02-14T17:43:35.488-08:00,39762,1.286246,0.8953474,0,29524.43,73,92,2023-02-21T15:24:56.883-08:00,698714697,0,9.41,99.17246,1,0.53,0
2023-02-21T15:24:59.332-08:00,1677021899,34.06383397,-118.4510368,121.3564,0.5217364,1.701913,313.40406,87.94536611,9.215212072,14.81555601,-9999,338918.0118,0.416900635,0.046585083,-0.898590088,338917.9968,3.037666444,0.356539536,-0.037510202,0.094845623,0.148838416,-0.285024107,0.049786806,0.039189279,-0.034709811,XArbitraryZVertical,0.178015168,0.009223178,-0.98247804,-0.054428698,0.348787963,0.037501406,-0.936451077,0,0,0,-1,-1,338915.5645,unknown,2,2023-02-21T15:24:56.883-08:00,2023-02-14T17:43:35.488-08:00,39762,1.286246,0.8953474,0,29524.43,73,92,2023-02-21T15:24:56.883-08:00,698714697,0,9.41,99.17246,1,0.53,0
2023-02-21T15:24:59.367-08:00,1677021899,34.06383397,-118.4510368,121.3564,0.5217364,1.701913,313.40406,87.94536611,9.215212072,14.81555601,-9999,338918.0468,0.393692017,0.07421875,-0.887741089,338918.0268,3.028695446,0.358412314,-0.038878009,0.082076192,0.015504867,-0.307569087,0.063554883,0.003413897,0.049394786,XArbitraryZVertical,0.179010054,0.009041393,-0.982037117,-0.058963861,0.350522816,0.038868215,-0.935747325,0,0,0,-1,-1,338915.5645,unknown,2,2023-02-21T15:24:56.883-08:00,2023-02-14T17:43:35.488-08:00,39762,1.286246,0.8953474,0,29524.43,73,92,2023-02-21T15:24:56.883-08:00,698714697,0,9.41,99.17246,1,0.53,0
2023-02-21T15:24:59.402-08:00,1677021899,34.06383397,-118.4510368,121.3564,0.5217364,1.701913,313.40406,87.94536611,9.215212072,14.81555601,-9999,338918.0819,0.414718628,0.044754028,-0.913986206,338918.0568,3.018383227,0.357454906,-0.038394448,0.162600547,-0.023836613,-0.325667828,0.04405871,0.035833742,0.048358858,XArbitraryZVertical,0.178570498,0.007911445,-0.981812903,-0.063980046,0.349633276,0.038385015,-0.936099946,0,0,0,-1,-1,338915.5645,unknown,2,2023-02-21T15:24:56.883-08:00,2023-02-14T17:43:35.488-08:00,39762,1.286246,0.8953474,0,29524.43,73,92,2023-02-21T15:24:56.883-08:00,698714697,0,9.41,99.17246,1,0.53,0
2023-02-21T15:24:59.438-08:00,1677021899,34.06383397,-118.4510368,121.3564,0.5217364,1.701913,313.40406,87.94536611,9.215212072,14.81555601,-9999,338918.1169,0.375595093,0.005004883,-0.840026855,338918.0869,3.007746185,0.35585314,-0.036839266,0.117920473,-0.054209832,-0.298231751,0.064016581,0.013095833,0.020011365,XArbitraryZVertical,0.177775377,0.006253388,-0.981624999,-0.069058975,0.3481538,0.036830932,-0.936713636,0,0,0,-1,-1,338915.5645,unknown,2,2023-02-21T15:24:56.883-08:00,2023-02-14T17:43:35.488-08:00,39762,1.286246,0.8953474,0,29524.43,73,92,2023-02-21T15:24:56.883-08:00,698714697,0,9.41,99.17246,1,0.53,0
2023-02-21T15:24:59.472-08:00,1677021899,34.06383397,-118.4510368,121.3564,0.5217364,1.701913,313.40406,87.94536611,9.215212072,14.81555601,-9999,338918.1519,0.336853027,-0.01789856,-0.836547852,338918.1469,2.993899422,0.352260998,-0.042911782,-0.103305593,-0.008673439,-0.215861395,0.012093008,-0.058615156,0.110796154,XArbitraryZVertical,0.17626188,0.008139996,-0.981342487,-0.076370356,0.344703227,0.042898614,-0.937730968,0,0,0,-1,-1,338915.5645,unknown,2,2023-02-21T15:24:56.883-08:00,2023-02-14T17:43:35.488-08:00,39762,1.286246,0.8953474,0,29524.43,73,92,2023-02-21T15:24:56.883-08:00,698714697,0,9.41,99.17246,1,0.53,0
2023-02-21T15:24:59.508-08:00,1677021899,34.06383397,-118.4510368,121.3564,0.5217364,1.701913,313.40406,87.94536611,9.215212072,14.81555601,-9999,338918.187,0.31137085,0.00378418,-0.848983765,338918.177,2.987898941,0.352226139,-0.046429154,-0.001470311,0.028206283,-0.24712345,-0.027355641,-0.036509514,0.083133876,XArbitraryZVertical,0.176394448,0.009338987,-0.981049765,-0.079618304,0.344616354,0.046412475,-0.937595546,0,0,0,-1,-1,338915.5645,unknown,2,2023-02-21T15:24:56.883-08:00,2023-02-14T17:43:35.488-08:00,39762,1.286246,0.8953474,0,29524.43,73,92,2023-02-21T15:24:56.883-08:00,698714697,0,9.41,99.17246,1,0.53,0
2023-02-21T15:24:59.543-08:00,1677021899,34.06383397,-118.4510368,121.3564,0.5217364,1.701913,313.40406,87.94536611,9.215212072,14.81555601,-9999,338918.222,0.284683228,-0.029785156,-0.821334839,338918.207,2.981329084,0.352631717,-0.050266451,-0.118796296,0.023581503,-0.254475296,-0.039711028,-0.067197792,0.101542532,XArbitraryZVertical,0.176766103,0.010625636,-0.980674732,-0.083174035,0.344932556,0.050245285,-0.937281668,0,0,0,-1,-1,338918.1269,unknown,2,2023-02-21T15:24:59.446-08:00,2023-02-14T17:43:35.488-08:00,39765,1.286214,0.8297687,0,29526.48,73,92,2023-02-21T15:24:59.446-08:00,698714699.5,0,9.380001,99.17213,1,0.53,0
2023-02-21T15:24:59.578-08:00,1677021899,34.06383397,-118.4510368,121.3564,0.5217364,1.701913,313.40406,87.94536611,9.215212072,14.81555601,-9999,338918.257,0.27230835,-0.018997192,-0.834838867,338918.237,2.97556274,0.353378965,-0.058050753,-0.213260323,0.052879803,-0.276004583,-0.063062102,-0.089435995,0.113859177,XArbitraryZVertical,0.177461438,0.013902305,-0.98020464,-0.086677835,0.345486999,0.058018155,-0.936628342,0,0,0,-1,-1,338918.1269,unknown,2,2023-02-21T15:24:59.446-08:00,2023-02-14T17:43:35.488-08:00,39765,1.286214,0.8297687,0,29526.48,73,92,2023-02-21T15:24:59.446-08:00,698714699.5,0,9.380001,99.17213,1,0.53,0
2023-02-21T15:24:59.613-08:00,1677021899,34.06383397,-118.4510368,121.3564,0.5217364,1.701913,313.40406,87.94536611,9.215212072,14.81555601,-9999,338918.2921,0.269439697,-0.074645996,-0.803649902,338918.267,2.969974223,0.355318337,-0.064858389,-0.093268193,0.105518714,-0.231191799,-0.074849099,-0.083810121,0.10072571,XArbitraryZVertical,0.178718349,0.016657591,-0.9796319,-0.090019609,0.347157359,0.064812928,-0.935564578,0,0,0,-1,-1,338918.1269,unknown,2,2023-02-21T15:24:59.446-08:00,2023-02-14T17:43:35.488-08:00,39765,1.286214,0.8297687,0,29526.48,73,92,2023-02-21T15:24:59.446-08:00,698714699.5,0,9.380001,99.17213,1,0.53,0
2023-02-21T15:24:59.648-08:00,1677021899,34.06383397,-118.4510368,121.3564,0.5217364,1.701913,313.40406,87.94536611,9.215212072,14.81555601,-9999,338918.3271,0.255386353,-0.133972168,-0.754333496,338918.2971,2.965456888,0.358233046,-0.071115815,-0.236759633,0.109741092,-0.199931175,-0.080126286,-0.136577129,0.122856081,XArbitraryZVertical,0.180434442,0.019186069,-0.979011359,-0.092801372,0.34973374,0.071055889,-0.934150636,0,0,0,-1,-1,338918.1269,unknown,2,2023-02-21T15:24:59.446-08:00,2023-02-14T17:43:35.488-08:00,39765,1.286214,0.8297687,0,29526.48,73,92,2023-02-21T15:24:59.446-08:00,698714699.5,0,9.380001,99.17213,1,0.53,0
2023-02-21T15:24:59.683-08:00,1677021899,34.06383397,-118.4510368,121.3564,0.5217364,1.701913,313.40406,87.94536611,9.215212072,14.81555601,-9999,338918.3621,0.243713379,-0.017318726,-0.882537842,338918.3571,2.963421226,0.363792084,-0.096120455,-0.114050329,0.096800387,-0.144113258,-0.08502847,-0.104502171,0.115756691,XArbitraryZVertical,0.184172934,0.030986552,-0.977698101,-0.096055173,0.35417822,0.095972508,-0.930240333,0,0,0,-1,-1,338918.1269,unknown,2,2023-02-21T15:24:59.446-08:00,2023-02-14T17:43:35.488-08:00,39765,1.286214,0.8297687,0,29526.48,73,92,2023-02-21T15:24:59.446-08:00,698714699.5,0,9.380001,99.17213,1,0.53,0
2023-02-21T15:24:59.718-08:00,1677021899,34.06383397,-118.4510368,121.3564,0.5217364,1.701913,313.40406,87.94536611,9.215212072,14.81555601,-9999,338918.3972,0.285415649,-0.115829468,-0.911895752,338918.3872,2.960097445,0.367697538,-0.098631472,-0.066876054,0.1392342,-0.119075172,-0.091851652,-0.147803292,0.002642572,XArbitraryZVertical,0.1862333,0.031718464,-0.97709485,-0.097962442,0.357720762,0.098471634,-0.928622186,0,0,0,-1,-1,338918.1269,unknown,2,2023-02-21T15:24:59.446-08:00,2023-02-14T17:43:35.488-08:00,39765,1.286214,0.8297687,0,29526.48,73,92,2023-02-21T15:24:59.446-08:00,698714699.5,0,9.380001,99.17213,1,0.53,0
2023-02-21T15:24:59.753-08:00,1677021899,34.06383397,-118.4510368,121.3564,0.5217364,1.701913,313.40406,87.94536611,9.215212072,14.81555601,-9999,338918.4322,0.263000488,0.002609253,-0.897781372,338918.4172,2.959386564,0.370166098,-0.107978782,-0.444251925,0.030113105,-0.147314444,-0.08581388,-0.23014456,0.05678153,XArbitraryZVertical,0.187823542,0.036103619,-0.976514995,-0.099182521,0.359663308,0.10776908,-0.926837683,0,0,0,-1,-1,338918.1269,unknown,2,2023-02-21T15:24:59.446-08:00,2023-02-14T17:43:35.488-08:00,39765,1.286214,0.8297687,0,29526.48,73,92,2023-02-21T15:24:59.446-08:00,698714699.5,0,9.380001,99.17213,1,0.53,0
2023-02-21T15:24:59.788-08:00,1677021899,34.06383397,-118.4510368,121.3564,0.5217364,1.701913,313.40406,87.94536611,9.215212072,14.81555601,-9999,338918.4672,0.270843506,0.139389038,-1.124710083,338918.4472,2.958861338,0.369884264,-0.120838731,-0.291450858,-0.042977616,-0.185148895,-0.095077455,-0.096832708,-0.00488019,XArbitraryZVertical,0.188203803,0.042358129,-0.976047834,-0.100576461,0.358871371,0.120544866,-0.92557025,0,0,0,-1,-1,338918.1269,unknown,2,2023-02-21T15:24:59.446-08:00,2023-02-14T17:43:35.488-08:00,39765,1.286214,0.8297687,0,29526.48,73,92,2023-02-21T15:24:59.446-08:00,698714699.5,0,9.380001,99.17213,1,0.53,0
2023-02-21T15:24:59.823-08:00,1677021899,34.06383397,-118.4510368,121.3564,0.5217364,1.701913,313.40406,87.94536611,9.215212072,14.81555601,-9999,338918.5023,0.299224854,0.073608398,-1.086486816,338918.4772,2.953522393,0.3677177,-0.124239531,0.072901607,-0.051684223,-0.246336669,-0.085872322,0.015468881,-0.198752403,XArbitraryZVertical,0.187396763,0.043630335,-0.975848357,-0.103435565,0.356715798,0.123920165,-0.92595768,0,0,0,-1,-1,338918.1269,unknown,2,2023-02-21T15:24:59.446-08:00,2023-02-14T17:43:35.488-08:00,39765,1.286214,0.8297687,0,29526.48,73,92,2023-02-21T15:24:59.446-08:00,698714699.5,0,9.380001,99.17213,1,0.53,0
2023-02-21T15:24:59.858-08:00,1677021899,34.06383397,-118.4510368,121.3564,0.5217364,1.701913,313.40406,87.94536611,9.215212072,14.81555601,-9999,338918.5373,0.268508911,0.110992432,-1.021408081,338918.5073,2.944702247,0.363114358,-0.127579245,-0.083406404,-0.187917426,-0.385264039,-0.052862138,-0.052236497,-0.175020754,XArbitraryZVertical,0.185484093,0.044684436,-0.975679388,-0.107928579,0.352300555,0.127233431,-0.927197933,0,0,0,-1,-1,338918.1269,unknown,2,2023-02-21T15:24:59.446-08:00,2023-02-14T17:43:35.488-08:00,39765,1.286214,0.8297687,0,29526.48,73,92,2023-02-21T15:24:59.446-08:00,698714699.5,0,9.380001,99.17213,1,0.53,0
2023-02-21T15:24:59.893-08:00,1677021899,34.06383397,-118.4510368,121.3564,0.5217364,1.701913,313.40406,87.94536611,9.215212072,14.81555601,-9999,338918.5723,0.352752686,0.205200195,-1.260681152,338918.5673,2.920317796,0.348742065,-0.1443254,0.010756793,0.065004177,-0.385219783,-0.046399832,0.041203201,-0.185141027,XArbitraryZVertical,0.179819259,0.051467256,-0.974885844,-0.120886602,0.338163108,0.143824875,-0.930032313,0,0,0,-1,-1,338918.1269,unknown,2,2023-02-21T15:24:59.446-08:00,2023-02-14T17:43:35.488-08:00,39765,1.286214,0.8297687,0,29526.48,73,92,2023-02-21T15:24:59.446-08:00,698714699.5,0,9.380001,99.17213,1,0.53,0
2023-02-21T15:24:59.928-08:00,1677021899,34.06383397,-118.4510368,121.3564,0.5217364,1.701913,313.40406,87.94536611,9.215212072,14.81555601,-9999,338918.6074,0.418548584,0.199005127,-1.245651245,338918.5974,2.910903249,0.35157301,-0.144349343,0.145716161,0.134875461,-0.217734143,0.074077785,0.087459415,-0.406686366,XArbitraryZVertical,0.181439657,0.050454267,-0.974049099,-0.12554781,0.340793431,0.143848568,-0.929068029,0,0,0,-1,-1,338918.1269,unknown,2,2023-02-21T15:24:59.446-08:00,2023-02-14T17:43:35.488-08:00,39765,1.286214,0.8297687,0,29526.48,73,92,2023-02-21T15:24:59.446-08:00,698714699.5,0,9.380001,99.17213,1,0.53,0
2023-02-21T15:24:59.963-08:00,1677021899,34.06383397,-118.4510368,121.3564,0.5217364,1.701913,313.40406,87.94536611,9.215212072,14.81555601,-9999,338918.6424,0.347335815,0.181869507,-0.912734985,338918.6274,2.902122041,0.349877997,-0.145811786,-0.111869685,-0.188271224,-0.393341869,0.067623079,0.029554814,-0.206662655,XArbitraryZVertical,0.180910946,0.050481284,-0.973575171,-0.129900927,0.33914569,0.14529565,-0.929445744,0,0,0,-1,-1,338918.1269,unknown,2,2023-02-21T15:24:59.446-08:00,2023-02-14T17:43:35.488-08:00,39765,1.286214,0.8297687,0,29526.48,73,92,2023-02-21T15:24:59.446-08:00,698714699.5,0,9.380001,99.17213,1,0.53,0
2023-02-21T15:24:59.999-08:00,1677021899,34.06383397,-118.4510368,121.3564,0.5217364,1.701913,313.40406,87.94536611,9.215212072,14.81555601,-9999,338918.6774,0.244842529,0.264282227,-0.94342041,338918.6574,2.890381478,0.339215159,-0.155891046,-0.184364125,-0.300366551,-0.521649003,0.001457602,0.041059181,0.039490819,XArbitraryZVertical,0.17657216,0.055062934,-0.97327041,-0.136143074,0.328712046,0.155260399,-0.931580663,0,0,0,-1,-1,338918.1269,unknown,2,2023-02-21T15:24:59.446-08:00,2023-02-14T17:43:35.488-08:00,39765,1.286214,0.8297687,0,29526.48,73,92,2023-02-21T15:24:59.446-08:00,698714699.5,0,9.380001,99.17213,1,0.53,0
2023-02-21T15:25:00.033-08:00,1677021899,34.06383397,-118.4510368,121.3564,0.5217364,1.701913,313.40406,87.94536611,9.215212072,14.81555601,-9999,338918.7125,0.276321411,0.210449219,-0.941452026,338918.6874,2.877319484,0.332700742,-0.15994952,0.180375874,0.04964786,-0.349743932,-0.077585459,0.105013862,-0.010321379,XArbitraryZVertical,0.173996455,0.056353513,-0.972731102,-0.142631474,0.322427958,0.159268364,-0.933099031,0,0,0,-1,-1,338918.1269,unknown,2,2023-02-21T15:24:59.446-08:00,2023-02-14T17:43:35.488-08:00,39765,1.286214,0.8297687,0,29526.48,73,92,2023-02-21T15:24:59.446-08:00,698714699.5,0,9.380001,99.17213,1,0.53,0
2023-02-21T15:25:00.068-08:00,1677021899,34.06383397,-118.4510368,121.3564,0.5217364,1.701913,313.40406,87.94536611,9.215212072,14.81555601,-9999,338918.7475,0.309661865,0.118545532,-0.723617554,338918.7175,2.867902002,0.337361741,-0.154744248,0.245936081,0.35278219,-0.140584067,-0.051637739,0.068147376,-0.03309834,XArbitraryZVertical,0.176209862,0.052651834,-0.971899092,-0.146935215,0.327043593,0.154127404,-0.932355762,0,0,0,-1,-1,338918.1269,unknown,2,2023-02-21T15:24:59.446-08:00,2023-02-14T17:43:35.488-08:00,39765,1.286214,0.8297687,0,29526.48,73,92,2023-02-21T15:24:59.446-08:00,698714699.5,0,9.380001,99.17213,1,0.53,0
2023-02-21T15:25:00.103-08:00,1677021900,34.06383572,-118.4510447,122.1466,0.6113127,1.664624,307.6406242,74.71509508,9.22040387,14.81232547,-9999,338918.7825,0.385299683,0.206878662,-0.829055786,338918.7775,2.866783182,0.365319739,-0.156734129,-0.234984741,0.484293014,0.040249132,0.023870558,0.008152395,0.14283669,XArbitraryZVertical,0.189926328,0.051454731,-0.969158181,-0.148367158,0.352868915,0.15609321,-0.922560811,0,0,0,-1,-1,338918.1269,unknown,2,2023-02-21T15:24:59.446-08:00,2023-02-14T17:43:35.488-08:00,39765,1.286214,0.8297687,0,29526.48,73,92,2023-02-21T15:24:59.446-08:00,698714699.5,0,9.380001,99.17213,1,0.53,0
2023-02-21T15:25:00.138-08:00,1677021900,34.06383572,-118.4510447,122.1466,0.6113127,1.664624,307.6406242,74.71509508,9.22040387,14.81232547,-9999,338918.8176,0.381652832,0.139205933,-0.854385376,338918.8076,2.870375405,0.379068701,-0.157466818,0.038137499,0.393201888,0.124665916,0.017442256,0.059354395,0.039387643,XArbitraryZVertical,0.196536467,0.051142694,-0.968057938,-0.147043169,0.365476996,0.15681687,-0.917515695,0,0,0,-1,-1,338918.1269,unknown,2,2023-02-21T15:24:59.446-08:00,2023-02-14T17:43:35.488-08:00,39765,1.286214,0.8297687,0,29526.48,73,92,2023-02-21T15:24:59.446-08:00,698714699.5,0,9.380001,99.17213,1,0.53,0
2023-02-21T15:25:00.173-08:00,1677021900,34.06383572,-118.4510447,122.1466,0.6113127,1.664624,307.6406242,74.71509508,9.22040387,14.81232547,-9999,338918.8526,0.332504272,0.031890869,-0.64932251,338918.8376,2.875154869,0.390077698,-0.155709553,-0.133156642,0.312993139,0.191305757,-0.016010165,-0.066152886,0.121407986,XArbitraryZVertical,0.201640351,0.049961296,-0.967400036,-0.144851929,0.375659794,0.155081108,-0.91369009,0,0,0,-1,-1,338918.1269,unknown,2,2023-02-21T15:24:59.446-08:00,2023-02-14T17:43:35.488-08:00,39765,1.286214,0.8297687,0,29526.48,73,92,2023-02-21T15:24:59.446-08:00,698714699.5,0,9.380001,99.17213,1,0.53,0
2023-02-21T15:25:00.208-08:00,1677021900,34.06383572,-118.4510447,122.1466,0.6113127,1.664624,307.6406242,74.71509508,9.22040387,14.81232547,-9999,338918.8876,0.316375732,0.036514282,-0.584106445,338918.8676,2.885220619,0.400880437,-0.162298563,-0.530418575,0.316098303,0.283257574,-0.054885507,-0.134075388,0.272357166,XArbitraryZVertical,0.206972286,0.053417254,-0.96667709,-0.140870348,0.385100931,0.161586985,-0.908618152,0,0,0,-1,-1,338918.1269,unknown,2,2023-02-21T15:24:59.446-08:00,2023-02-14T17:43:35.488-08:00,39765,1.286214,0.8297687,0,29526.48,73,92,2023-02-21T15:24:59.446-08:00,698714699.5,0,9.380001,99.17213,1,0.53,0
2023-02-21T15:25:00.243-08:00,1677021900,34.06383572,-118.4510447,122.1466,0.6113127,1.664624,307.6406242,74.71509508,9.22040387,14.81232547,-9999,338918.9227,0.298568726,0.014038086,-0.499984741,338918.8976,2.903302896,0.414540552,-0.173860445,-0.58271575,0.419023573,0.523983777,-0.080321729,-0.136471599,0.317396224,XArbitraryZVertical,0.21365781,0.059991747,-0.965865939,-0.13361998,0.396697402,0.172985882,-0.901502669,0,0,0,-1,-1,338918.1269,unknown,2,2023-02-21T15:24:59.446-08:00,2023-02-14T17:43:35.488-08:00,39765,1.286214,0.8297687,0,29526.48,73,92,2023-02-21T15:24:59.446-08:00,698714699.5,0,9.380001,99.17213,1,0.53,0
2023-02-21T15:25:00.278-08:00,1677021900,34.06383572,-118.4510447,122.1466,0.6113127,1.664624,307.6406242,74.71509508,9.22040387,14.81232547,-9999,338918.9577,0.303649902,-0.086257935,-0.351638794,338918.9277,2.929593231,0.435220662,-0.184283381,-0.860522926,0.663218558,0.767900646,-0.116116673,-0.16291739,0.376042426,XArbitraryZVertical,0.223279809,0.066591853,-0.964715255,-0.122621348,0.414471716,0.183242097,-0.891423285,0,0,0,-1,-1,338918.1269,unknown,2,2023-02-21T15:24:59.446-08:00,2023-02-14T17:43:35.488-08:00,39765,1.286214,0.8297687,0,29526.48,73,92,2023-02-21T15:24:59.446-08:00,698714699.5,0,9.380001,99.17213,1,0.53,0
2023-02-21T15:25:00.313-08:00,1677021900,34.06383572,-118.4510447,122.1466,0.6113127,1.664624,307.6406242,74.71509508,9.22040387,14.81232547,-9999,338918.9927,0.407653809,-0.093139648,-0.257034302,338918.9877,3.04384351,0.522166051,-0.261099973,-3.34616375,1.433137178,1.431386828,-0.134182602,-0.371928185,0.549888492,XArbitraryZVertical,0.261769278,0.113114125,-0.955104255,-0.080360529,0.481854081,0.258143395,-0.837364078,0,0,0,-1,-1,338918.1269,unknown,2,2023-02-21T15:24:59.446-08:00,2023-02-14T17:43:35.488-08:00,39765,1.286214,0.8297687,0,29526.48,73,92,2023-02-21T15:24:59.446-08:00,698714699.5,0,9.380001,99.17213,1,0.53,0
2023-02-21T15:25:00.348-08:00,1677021900,34.06383572,-118.4510447,122.1466,0.6113127,1.664624,307.6406242,74.71509508,9.22040387,14.81232547,-9999,338919.0278,0.677444458,0.060440063,-0.238311768,338919.0178,-3.129051262,0.603765098,-0.33297574,-4.379210472,1.825666904,1.952261209,-0.043413103,-0.383161724,0.54291153,XArbitraryZVertical,0.292209161,0.160061201,-0.941867039,-0.043366243,0.536561847,0.326856762,-0.777988434,0,0,0,-1,-1,338918.1269,unknown,2,2023-02-21T15:24:59.446-08:00,2023-02-14T17:43:35.488-08:00,39765,1.286214,0.8297687,0,29526.48,73,92,2023-02-21T15:24:59.446-08:00,698714699.5,0,9.380001,99.17213,1,0.53,0
2023-02-21T15:25:00.383-08:00,1677021900,34.06383572,-118.4510447,122.1466,0.6113127,1.664624,307.6406242,74.71509508,9.22040387,14.81232547,-9999,338919.0628,1.079177856,0.307632446,-0.237335205,338919.0478,-2.979631143,0.716230248,-0.405746217,-5.075712681,2.02584672,2.418411016,0.185517609,-0.24702993,0.440053403,XArbitraryZVertical,0.326931588,0.215855645,-0.920058353,0.003815902,0.603239655,0.394704491,-0.693044126,0,0,0,-1,-1,338918.1269,unknown,2,2023-02-21T15:24:59.446-08:00,2023-02-14T17:43:35.488-08:00,39765,1.286214,0.8297687,0,29526.48,73,92,2023-02-21T15:24:59.446-08:00,698714699.5,0,9.380001,99.17213,1,0.53,0
2023-02-21T15:25:00.418-08:00,1677021900,34.06383572,-118.4510447,122.1466,0.6113127,1.664624,307.6406242,74.71509508,9.22040387,14.81232547,-9999,338919.0978,1.528823853,0.437484741,-0.152740479,338919.0778,-2.795362448,0.855586381,-0.45980294,-5.242893696,2.055049658,2.901976109,0.397764385,-0.098922908,0.347630978,XArbitraryZVertical,0.362194849,0.273827286,-0.888985832,0.059478527,0.676545858,0.443771511,-0.587666988,0,0,0,-1,-1,338918.1269,unknown,2,2023-02-21T15:24:59.446-08:00,2023-02-14T17:43:35.488-08:00,39765,1.286214,0.8297687,0,29526.48,73,92,2023-02-21T15:24:59.446-08:00,698714699.5,0,9.380001,99.17213,1,0.53,0
2023-02-21T15:25:00.453-08:00,1677021900,34.06383572,-118.4510447,122.1466,0.6113127,1.664624,307.6406242,74.71509508,9.22040387,14.81232547,-9999,338919.1329,1.777648926,0.537399292,-0.087860107,338919.1078,-2.591384994,1.000844399,-0.477235663,-5.101315498,1.466153026,3.464133263,0.780967057,-0.021840751,0.326561451,XArbitraryZVertical,0.392337292,0.326221519,-0.851268664,0.122444201,0.747856736,0.459325463,-0.479301929,0,0,0,-1,-1,338918.1269,unknown,2,2023-02-21T15:24:59.446-08:00,2023-02-14T17:43:35.488-08:00,39765,1.286214,0.8297687,0,29526.48,73,92,2023-02-21T15:24:59.446-08:00,698714699.5,0,9.380001,99.17213,1,0.53,0
2023-02-21T15:25:00.488-08:00,1677021900,34.06383572,-118.4510447,122.1466,0.6113127,1.664624,307.6406242,74.71509508,9.22040387,14.81232547,-9999,338919.1679,2.057067871,0.655761719,-0.128189087,338919.1379,-2.385530493,1.133698617,-0.447324242,-4.752112389,1.255999804,4.231021404,0.895712674,0.10849154,0.287987471,XArbitraryZVertical,0.417570558,0.367156952,-0.808464044,0.192915646,0.816842198,0.432554603,-0.381661206,0,0,0,-1,-1,338918.1269,unknown,2,2023-02-21T15:24:59.446-08:00,2023-02-14T17:43:35.488-08:00,39765,1.286214,0.8297687,0,29526.48,73,92,2023-02-21T15:24:59.446-08:00,698714699.5,0,9.380001,99.17213,1,0.53,0
2023-02-21T15:25:00.523-08:00,1677021900,34.06383572,-118.4510447,122.1466,0.6113127,1.664624,307.6406242,74.71509508,9.22040387,14.81232547,-9999,338919.2029,1.465591431,0.961395264,-0.424468994,338919.1979,-2.050367654,1.313120829,-0.314464652,-2.864603996,0.319313288,3.583039999,0.889393926,0.482486367,-0.018817246,XArbitraryZVertical,0.450971332,0.418875126,-0.718339247,0.324279444,0.919565976,0.309307426,-0.242336974,0,0,0,-1,-1,338918.1269,unknown,2,2023-02-21T15:24:59.446-08:00,2023-02-14T17:43:35.488-08:00,39765,1.286214,0.8297687,0,29526.48,73,92,2023-02-21T15:24:59.446-08:00,698714699.5,0,9.380001,99.17213,1,0.53,0
2023-02-21T15:25:00.559-08:00,1677021900,34.06383572,-118.4510447,122.1466,0.6113127,1.664624,307.6406242,74.71509508,9.22040387,14.81232547,-9999,338919.238,1.13218689,0.555831909,-0.322067261,338919.228,-1.972037666,1.348261758,-0.23525977,-1.007475734,0.640981436,2.657157183,0.283199906,0.585660458,-0.214927316,XArbitraryZVertical,0.466286172,0.418647545,-0.68737082,0.367195752,0.948474228,0.233095601,-0.214622885,0,0,0,-1,-1,338918.1269,unknown,2,2023-02-21T15:24:59.446-08:00,2023-02-14T17:43:35.488-08:00,39765,1.286214,0.8297687,0,29526.48,73,92,2023-02-21T15:24:59.446-08:00,698714699.5,0,9.380001,99.17213,1,0.53,0
2023-02-21T15:25:00.593-08:00,1677021900,34.06383572,-118.4510447,122.1466,0.6113127,1.664624,307.6406242,74.71509508,9.22040387,14.81232547,-9999,338919.273,1.289428711,0.44229126,-0.242233276,338919.258,-1.943046429,1.378513218,-0.170468474,0.034118257,0.968806565,1.974351645,0.159487963,0.341510117,-0.073174655,XArbitraryZVertical,0.48618191,0.411657506,-0.665467794,0.388995936,0.967342973,0.169644058,-0.188330501,0,0,0,-1,-1,338918.1269,unknown,2,2023-02-21T15:24:59.446-08:00,2023-02-14T17:43:35.488-08:00,39765,1.286214,0.8297687,0,29526.48,73,92,2023-02-21T15:24:59.446-08:00,698714699.5,0,9.380001,99.17213,1,0.53,0
2023-02-21T15:25:00.630-08:00,1677021900,34.06383572,-118.4510447,122.1466,0.6113127,1.664624,307.6406242,74.71509508,9.22040387,14.81232547,-9999,338919.308,1.209503174,0.452087402,-0.275146484,338919.288,-1.937749121,1.407081416,-0.120113155,-0.03391033,0.784822047,1.408062458,0.330660582,0.318789363,-0.090585366,XArbitraryZVertical,0.506347549,0.403369577,-0.649389026,0.398997691,0.979520142,0.119824551,-0.161810294,0,0,0,-1,-1,338918.1269,unknown,2,2023-02-21T15:24:59.446-08:00,2023-02-14T17:43:35.488-08:00,39765,1.286214,0.8297687,0,29526.48,73,92,2023-02-21T15:24:59.446-08:00,698714699.5,0,9.380001,99.17213,1,0.53,0
2023-02-21T15:25:00.664-08:00,1677021900,34.06383572,-118.4510447,122.1466,0.6113127,1.664624,307.6406242,74.71509508,9.22040387,14.81232547,-9999,338919.3431,0.952651978,0.556365967,-0.258911133,338919.318,-1.914383901,1.426318584,-0.084125256,-1.180853724,0.422548324,1.164488792,0.223421454,0.368061364,-0.131680071,XArbitraryZVertical,0.516095437,0.402383226,-0.633627199,0.412613461,0.98608166,0.084026061,-0.143466473,0,0,0,-1,-1,338918.1269,unknown,2,2023-02-21T15:24:59.446-08:00,2023-02-14T17:43:35.488-08:00,39765,1.286214,0.8297687,0,29526.48,73,92,2023-02-21T15:24:59.446-08:00,698714699.5,0,9.380001,99.17213,1,0.53,0
2023-02-21T15:25:00.699-08:00,1677021900,34.06383572,-118.4510447,122.1466,0.6113127,1.664624,307.6406242,74.71509508,9.22040387,14.81232547,-9999,338919.3781,0.718307495,0.553237915,-0.27557373,338919.3481,-1.865319598,1.439458815,-0.059602533,-1.683159828,0.217695385,0.883647025,-0.004382491,0.480395496,-0.130594373,XArbitraryZVertical,0.515876329,0.410496971,-0.615431325,0.431981577,0.989627182,0.05956725,-0.130727693,0,0,0,-1,-1,338918.1269,unknown,2,2023-02-21T15:24:59.446-08:00,2023-02-14T17:43:35.488-08:00,39765,1.286214,0.8297687,0,29526.48,73,92,2023-02-21T15:24:59.446-08:00,698714699.5,0,9.380001,99.17213,1,0.53,0
2023-02-21T15:25:00.734-08:00,1677021900,34.06383572,-118.4510447,122.1466,0.6113127,1.664624,307.6406242,74.71509508,9.22040387,14.81232547,-9999,338919.4131,0.536560059,0.537200928,-0.273605347,338919.4081,-1.777030451,1.446492626,-0.033735382,-0.881827891,0.015666189,0.367564768,-0.397481441,0.519386888,-0.153155863,XArbitraryZVertical,0.505617725,0.427076187,-0.588795469,0.463979051,0.991719663,0.033728983,-0.123913296,0,0,0,-1,-1,338918.1269,unknown,2,2023-02-21T15:24:59.446-08:00,2023-02-14T17:43:35.488-08:00,39765,1.286214,0.8297687,0,29526.48,73,92,2023-02-21T15:24:59.446-08:00,698714699.5,0,9.380001,99.17213,1,0.53,0
2023-02-21T15:25:00.769-08:00,1677021900,34.06383572,-118.4510447,122.1466,0.6113127,1.664624,307.6406242,74.71509508,9.22040387,14.81232547,-9999,338919.4482,0.477081299,0.49105835,-0.282730103,338919.4382,-1.756809446,1.448310245,-0.028405,-0.455655962,0.063870534,0.17675525,-0.488735437,0.485957384,-0.159561753,XArbitraryZVertical,0.503100021,0.431074231,-0.582515409,0.470894021,0.99210757,0.028401181,-0.122130752,0,0,0,-1,-1,338918.1269,unknown,2,2023-02-21T15:24:59.446-08:00,2023-02-14T17:43:35.488-08:00,39765,1.286214,0.8297687,0,29526.48,73,92,2023-02-21T15:24:59.446-08:00,698714699.5,0,9.380001,99.17213,1,0.53,0
2023-02-21T15:25:00.804-08:00,1677021900,34.06383572,-118.4510447,122.1466,0.6113127,1.664624,307.6406242,74.71509508,9.22040387,14.81232547,-9999,338919.4832,0.473342896,0.464096069,-0.248504639,338919.4682,-1.746095289,1.450887052,-0.026403078,-0.261364311,0.100262567,0.064503707,-0.523174167,0.452420771,-0.15564239,XArbitraryZVertical,0.502018475,0.433805524,-0.578919955,0.47396397,0.992473423,0.026400011,-0.119580433,0,0,0,-1,-1,338918.1269,unknown,2,2023-02-21T15:24:59.446-08:00,2023-02-14T17:43:35.488-08:00,39765,1.286214,0.8297687,0,29526.48,73,92,2023-02-21T15:24:59.446-08:00,698714699.5,0,9.380001,99.17213,1,0.53,0
2023-02-21T15:25:00.839-08:00,1677021900,34.06383572,-118.4510447,122.1466,0.6113127,1.664624,307.6406242,74.71509508,9.22040387,14.81232547,-9999,338919.5182,0.599960327,0.501983643,-0.310562134,338919.4982,-1.740163679,1.455059876,-0.02608038,-0.116476521,0.172521323,0.024107814,-0.509985805,0.438445896,-0.130746365,XArbitraryZVertical,0.502012278,0.436192833,-0.576397782,0.474852669,0.992972195,0.026077423,-0.115438968,0,0,0,-1,-1,338918.1269,unknown,2,2023-02-21T15:24:59.446-08:00,2023-02-14T17:43:35.488-08:00,39765,1.286214,0.8297687,0,29526.48,73,92,2023-02-21T15:24:59.446-08:00,698714699.5,0,9.380001,99.17213,1,0.53,0
2023-02-21T15:25:00.874-08:00,1677021900,34.06383572,-118.4510447,122.1466,0.6113127,1.664624,307.6406242,74.71509508,9.22040387,14.81232547,-9999,338919.5533,0.75920105,0.509048462,-0.347915649,338919.5282,-1.739669559,1.460520411,-0.026235999,0.094384469,0.170185596,-0.028418843,-0.393623412,0.475750655,-0.200547516,XArbitraryZVertical,0.503438148,0.437655917,-0.574940828,0.473761795,0.99358362,0.02623299,-0.110014655,0,0,0,-1,-1,338918.1269,unknown,2,2023-02-21T15:24:59.446-08:00,2023-02-14T17:43:35.488-08:00,39765,1.286214,0.8297687,0,29526.48,73,92,2023-02-21T15:24:59.446-08:00,698714699.5,0,9.380001,99.17213,1,0.53,0
2023-02-21T15:25:00.909-08:00,1677021900,34.06383572,-118.4510447,122.1466,0.6113127,1.664624,307.6406242,74.71509508,9.22040387,14.81232547,-9999,338919.5883,0.962646484,0.520568848,-0.327056885,338919.5583,-1.744989972,1.46421128,-0.027654352,0.219286993,0.11861667,-0.114530824,-0.252551019,0.483335525,-0.25121659,XArbitraryZVertical,0.505319098,0.437585732,-0.575566237,0.471057121,0.993945003,0.027650828,-0.106342673,0,0,0,-1,-1,338918.1269,unknown,2,2023-02-21T15:24:59.446-08:00,2023-02-14T17:43:35.488-08:00,39765,1.286214,0.8297687,0,29526.48,73,92,2023-02-21T15:24:59.446-08:00,698714699.5,0,9.380001,99.17213,1,0.53,0
2023-02-21T15:25:00.944-08:00,1677021900,34.06383572,-118.4510447,122.1466,0.6113127,1.664624,307.6406242,74.71509508,9.22040387,14.81232547,-9999,338919.6233,1.296066284,0.571960449,-0.415252686,338919.6183,-1.769265057,1.473381904,-0.040641869,0.567943394,0.131142914,-0.457091123,0.162102759,0.510257363,-0.30934459,XArbitraryZVertical,0.510148174,0.437217098,-0.581594011,0.458626567,0.994436979,0.04063068,-0.097180098,0,0,0,-1,-1,338918.1269,unknown,2,2023-02-21T15:24:59.446-08:00,2023-02-14T17:43:35.488-08:00,39765,1.286214,0.8297687,0,29526.48,73,92,2023-02-21T15:24:59.446-08:00,698714699.5,0,9.380001,99.17213,1,0.53,0
2023-02-21T15:25:00.979-08:00,1677021900,34.06383572,-118.4510447,122.1466,0.6113127,1.664624,307.6406242,74.71509508,9.22040387,14.81232547,-9999,338919.6584,1.491363525,0.554412842,-0.317581177,338919.6484,-1.787928665,1.473199925,-0.056665741,0.53803587,-0.025326386,-0.726290345,0.384972453,0.493504971,-0.280003667,XArbitraryZVertical,0.510334453,0.436939557,-0.589152739,0.448933881,0.99364382,0.056635421,-0.097285137,0,0,0,-1,-1,338918.1269,unknown,2,2023-02-21T15:24:59.446-08:00,2023-02-14T17:43:35.488-08:00,39765,1.286214,0.8297687,0,29526.48,73,92,2023-02-21T15:24:59.446-08:00,698714699.5,0,9.380001,99.17213,1,0.53,0
2023-02-21T15:25:01.014-08:00,1677021900,34.06383572,-118.4510447,122.1466,0.6113127,1.664624,307.6406242,74.71509508,9.22040387,14.81232547,-9999,338919.6934,1.63482666,0.619781494,-0.402160645,338919.6784,-1.808915911,1.471145214,-0.080758809,0.77995199,-0.084598362,-1.009432554,0.584437013,0.495241463,-0.223057911,XArbitraryZVertical,0.508545204,0.437950656,-0.599112007,0.436629759,0.991795659,0.08067105,-0.099161997,0,0,0,-1,-1,338918.1269,unknown,2,2023-02-21T15:24:59.446-08:00,2023-02-14T17:43:35.488-08:00,39765,1.286214,0.8297687,0,29526.48,73,92,2023-02-21T15:24:59.446-08:00,698714699.5,0,9.380001,99.17213,1,0.53,0
2023-02-21T15:25:01.049-08:00,1677021900,34.06383572,-118.4510447,122.1466,0.6113127,1.664624,307.6406242,74.71509508,9.22040387,14.81232547,-9999,338919.7284,1.187088013,0.602859497,-0.382965088,338919.7084,-1.844623221,1.460540765,-0.112398397,1.380426168,-0.403799593,-1.35621798,0.610015154,0.515203238,-0.315283597,XArbitraryZVertical,0.505542087,0.435612433,-0.615453408,0.419387861,0.987656355,0.112161882,-0.109338008,0,0,0,-1,-1,338918.1269,unknown,2,2023-02-21T15:24:59.446-08:00,2023-02-14T17:43:35.488-08:00,39765,1.286214,0.8297687,0,29526.48,73,92,2023-02-21T15:24:59.446-08:00,698714699.5,0,9.380001,99.17213,1,0.53,0
2023-02-21T15:25:01.092-08:00,1677021900,34.06383572,-118.4510447,122.1466,0.6113127,1.664624,307.6406242,74.71509508,9.22040387,14.81232547,-9999,338919.7635,1.081253052,0.446228027,-0.157470703,338919.7384,-1.900545571,1.436576387,-0.156724746,1.91415143,-0.545120001,-1.981575966,0.208227932,0.446775526,-0.250787944,XArbitraryZVertical,0.49949546,0.429436483,-0.640642499,0.394544712,0.978859842,0.156083941,-0.132177189,0,0,0,-1,-1,338918.1269,unknown,2,2023-02-21T15:24:59.446-08:00,2023-02-14T17:43:35.488-08:00,39765,1.286214,0.8297687,0,29526.48,73,92,2023-02-21T15:24:59.446-08:00,698714699.5,0,9.380001,99.17213,1,0.53,0
2023-02-21T15:25:01.120-08:00,1677021900,34.06383572,-118.4510447,122.1466,0.6113127,1.664624,307.6406242,74.71509508,9.22040387,14.81232547,-9999,338919.7985,1.364212036,0.363250732,-0.157333374,338919.7685,-1.976390302,1.407133321,-0.217202479,2.348429918,-0.415342927,-2.519727468,0.075500488,0.250077516,-0.015501261,XArbitraryZVertical,0.491561877,0.422864489,-0.671575694,0.358522866,0.9634552,0.215498686,-0.159105092,0,0,0,-1,-1,338918.1269,unknown,2,2023-02-21T15:24:59.446-08:00,2023-02-14T17:43:35.488-08:00,39765,1.286214,0.8297687,0,29526.48,73,92,2023-02-21T15:24:59.446-08:00,698714699.5,0,9.380001,99.17213,1,0.53,0
2023-02-21T15:25:01.155-08:00,1677021900,34.06383572,-118.4510447,122.1466,0.6113127,1.664624,307.6406242,74.71509508,9.22040387,14.81232547,-9999,338919.8335,1.273529053,0.337722778,-0.154953003,338919.8285,-2.160293269,1.315291918,-0.332863012,2.368729353,-0.941553712,-2.237309933,0.423355162,0.02029565,0.074203491,XArbitraryZVertical,0.469914073,0.399687635,-0.736134896,0.278452826,0.914428592,0.326750219,-0.238861114,0,0,0,-1,-1,338918.1269,unknown,2,2023-02-21T15:24:59.446-08:00,2023-02-14T17:43:35.488-08:00,39765,1.286214,0.8297687,0,29526.48,73,92,2023-02-21T15:24:59.446-08:00,698714699.5,0,9.380001,99.17213,1,0.53,0
2023-02-21T15:25:01.191-08:00,1677021901,34.06384128,-118.4510528,120.2881,0.8410121,2.330697,306.928814,112.2696308,8.949594431,14.97750289,-9999,338919.8686,1.099014282,0.325317383,-0.113113403,338919.8586,-2.243867511,1.255396675,-0.376181168,1.821609855,-1.093040347,-1.998976707,0.322529972,-0.033768475,0.149208218,XArbitraryZVertical,0.454102967,0.386700966,-0.763996138,0.24609477,0.884195983,0.367371351,-0.288505703,0,0,0,-1,-1,338918.1269,unknown,2,2023-02-21T15:24:59.446-08:00,2023-02-14T17:43:35.488-08:00,39765,1.286214,0.8297687,0,29526.48,73,92,2023-02-21T15:24:59.446-08:00,698714699.5,0,9.380001,99.17213,1,0.53,0
2023-02-21T15:25:01.224-08:00,1677021901,34.06384128,-118.4510528,120.2881,0.8410121,2.330697,306.928814,112.2696308,8.949594431,14.97750289,-9999,338919.9036,0.92666626,0.285400391,-0.086807251,338919.8886,-2.31339254,1.194472107,-0.414341184,1.35661459,-1.176802158,-1.843241453,0.199059486,-0.094801962,0.223537534,XArbitraryZVertical,0.435382715,0.377145188,-0.78735869,0.219703408,0.851324916,0.402586937,-0.336406797,0,0,0,-1,-1,338918.1269,unknown,2,2023-02-21T15:24:59.446-08:00,2023-02-14T17:43:35.488-08:00,39765,1.286214,0.8297687,0,29526.48,73,92,2023-02-21T15:24:59.446-08:00,698714699.5,0,9.380001,99.17213,1,0.53,0
2023-02-21T15:25:01.259-08:00,1677021901,34.06384128,-118.4510528,120.2881,0.8410121,2.330697,306.928814,112.2696308,8.949594431,14.97750289,-9999,338919.9386,0.787200928,0.259841919,-0.059265137,338919.9186,-2.372118426,1.13323156,-0.451164983,0.931928098,-1.261533141,-1.831271052,0.090013504,-0.156549543,0.299502999,XArbitraryZVertical,0.414104882,0.371280499,-0.807291709,0.19735229,0.815153003,0.436014235,-0.381335884,0,0,0,-1,-1,338918.1269,unknown,2,2023-02-21T15:24:59.446-08:00,2023-02-14T17:43:35.488-08:00,39765,1.286214,0.8297687,0,29526.48,73,92,2023-02-21T15:24:59.446-08:00,698714699.5,0,9.380001,99.17213,1,0.53,0
2023-02-21T15:25:01.294-08:00,1677021901,34.06384128,-118.4510528,120.2881,0.8410121,2.330697,306.928814,112.2696308,8.949594431,14.97750289,-9999,338919.9737,0.705688477,0.241607666,-0.004257202,338919.9486,-2.422700991,1.071066237,-0.492138056,0.524737298,-1.330473304,-1.963773012,0.013651788,-0.212669373,0.363055587,XArbitraryZVertical,0.389609102,0.370195045,-0.824511389,0.177034843,0.773549139,0.472511292,-0.422320753,0,0,0,-1,-1,338918.1269,unknown,2,2023-02-21T15:24:59.446-08:00,2023-02-14T17:43:35.488-08:00,39765,1.286214,0.8297687,0,29526.48,73,92,2023-02-21T15:24:59.446-08:00,698714699.5,0,9.380001,99.17213,1,0.53,0
2023-02-21T15:25:01.329-08:00,1677021901,34.06384128,-118.4510528,120.2881,0.8410121,2.330697,306.928814,112.2696308,8.949594431,14.97750289,-9999,338920.0087,0.694824219,0.206115723,0.032989502,338919.9787,-2.469336594,1.008150678,-0.539493953,0.23010236,-1.304582834,-2.121759415,-0.01216346,-0.26957655,0.44545567,XArbitraryZVertical,0.362516019,0.373832546,-0.83918265,0.156856088,0.725710154,0.513701856,-0.457662731,0,0,0,-1,-1,338918.1269,unknown,2,2023-02-21T15:24:59.446-08:00,2023-02-14T17:43:35.488-08:00,39765,1.286214,0.8297687,0,29526.48,73,92,2023-02-21T15:24:59.446-08:00,698714699.5,0,9.380001,99.17213,1,0.53,0
2023-02-21T15:25:01.364-08:00,1677021901,34.06384128,-118.4510528,120.2881,0.8410121,2.330697,306.928814,112.2696308,8.949594431,14.97750289,-9999,338920.0437,0.660797119,0.078674316,0.059860229,338920.0387,-2.558015759,0.888663624,-0.64336152,-0.365632862,-1.018949866,-1.86899364,0.091139734,-0.484745502,0.552462697,XArbitraryZVertical,0.308450379,0.390707029,-0.859472045,0.116250814,0.621048987,0.599888325,-0.50441277,0,0,0,-1,-1,338918.1269,unknown,2,2023-02-21T15:24:59.446-08:00,2023-02-14T17:43:35.488-08:00,39765,1.286214,0.8297687,0,29526.48,73,92,2023-02-21T15:24:59.446-08:00,698714699.5,0,9.380001,99.17213,1,0.53,0
2023-02-21T15:25:01.399-08:00,1677021901,34.06384128,-118.4510528,120.2881,0.8410121,2.330697,306.928814,112.2696308,8.949594431,14.97750289,-9999,338920.0788,0.609649658,0.128860474,0.015823364,338920.0688,-2.582045365,0.847493589,-0.692739983,-0.769973516,-0.686319649,-1.410089612,0.03484416,-0.562903404,0.555766761,XArbitraryZVertical,0.28626775,0.404226303,-0.862626336,0.102604151,0.576834798,0.638647974,-0.509303749,0,0,0,-1,-1,338918.1269,unknown,2,2023-02-21T15:24:59.446-08:00,2023-02-14T17:43:35.488-08:00,39765,1.286214,0.8297687,0,29526.48,73,92,2023-02-21T15:24:59.446-08:00,698714699.5,0,9.380001,99.17213,1,0.53,0
2023-02-21T15:25:01.434-08:00,1677021901,34.06384128,-118.4510528,120.2881,0.8410121,2.330697,306.928814,112.2696308,8.949594431,14.97750289,-9999,338920.1138,0.749465942,0.264205933,-0.018264771,338920.0988,-2.5871009,0.830133837,-0.735504805,-0.856532574,-0.249350816,-0.84487462,0.083408475,-0.492525339,0.510137916,XArbitraryZVertical,0.271871877,0.419421968,-0.860977403,0.09427993,0.547237217,0.670961559,-0.500341773,0,0,0,-1,-1,338918.1269,unknown,2,2023-02-21T15:24:59.446-08:00,2023-02-14T17:43:35.488-08:00,39765,1.286214,0.8297687,0,29526.48,73,92,2023-02-21T15:24:59.446-08:00,698714699.5,0,9.380001,99.17213,1,0.53,0
2023-02-21T15:25:01.469-08:00,1677021901,34.06384128,-118.4510528,120.2881,0.8410121,2.330697,306.928814,112.2696308,8.949594431,14.97750289,-9999,338920.1488,0.947891235,0.27192688,-0.069412231,338920.1288,-2.579851127,0.834561712,-0.761440893,-0.557386935,0.2036881,-0.159334347,0.246330559,-0.422295451,0.468590796,XArbitraryZVertical,0.267349705,0.430689041,-0.857221454,0.090567954,0.536369026,0.689965129,-0.486062169,0,0,0,-1,-1,338918.1269,unknown,2,2023-02-21T15:24:59.446-08:00,2023-02-14T17:43:35.488-08:00,39765,1.286214,0.8297687,0,29526.48,73,92,2023-02-21T15:24:59.446-08:00,698714699.5,0,9.380001,99.17213,1,0.53,0
2023-02-21T15:25:01.505-08:00,1677021901,34.06384128,-118.4510528,120.2881,0.8410121,2.330697,306.928814,112.2696308,8.949594431,14.97750289,-9999,338920.1839,1.133224487,0.227157593,-0.069503784,338920.1588,-2.559574502,0.859889777,-0.765188034,-0.357282907,0.560582578,0.602315843,0.401347518,-0.42074573,0.401219904,XArbitraryZVertical,0.273059809,0.436030124,-0.852460606,0.092881442,0.546543658,0.69267261,-0.470632136,0,0,0,-1,-1,338918.1269,unknown,2,2023-02-21T15:24:59.446-08:00,2023-02-14T17:43:35.488-08:00,39765,1.286214,0.8297687,0,29526.48,73,92,2023-02-21T15:24:59.446-08:00,698714699.5,0,9.380001,99.17213,1,0.53,0
2023-02-21T15:25:01.540-08:00,1677021901,34.06384128,-118.4510528,120.2881,0.8410121,2.330697,306.928814,112.2696308,8.949594431,14.97750289,-9999,338920.2189,1.366317749,0.23399353,-0.074401855,338920.1889,-2.522162126,0.909144558,-0.751142971,-0.455877721,1.008433104,1.295898795,0.523288608,-0.456675112,0.375492781,XArbitraryZVertical,0.288594343,0.438372392,-0.845144813,0.101356272,0.5766716,0.682474613,-0.449085891,0,0,0,-1,-1,338918.1269,unknown,2,2023-02-21T15:24:59.446-08:00,2023-02-14T17:43:35.488-08:00,39765,1.286214,0.8297687,0,29526.48,73,92,2023-02-21T15:24:59.446-08:00,698714699.5,0,9.380001,99.17213,1,0.53,0
2023-02-21T15:25:01.575-08:00,1677021901,34.06384128,-118.4510528,120.2881,0.8410121,2.330697,306.928814,112.2696308,8.949594431,14.97750289,-9999,338920.2539,1.357727051,0.344146729,-0.296859741,338920.2489,-2.389182026,1.070502535,-0.671516588,-1.01031363,1.293955922,2.63188982,0.717259407,-0.355236769,0.196853518,XArbitraryZVertical,0.343776454,0.440511913,-0.817059136,0.142061153,0.686930656,0.622174025,-0.375533998,0,0,0,-1,-1,338918.1269,unknown,2,2023-02-21T15:24:59.446-08:00,2023-02-14T17:43:35.488-08:00,39765,1.286214,0.8297687,0,29526.48,73,92,2023-02-21T15:24:59.446-08:00,698714699.5,0,9.380001,99.17213,1,0.53,0
2023-02-21T15:25:01.610-08:00,1677021901,34.06384128,-118.4510528,120.2881,0.8410121,2.330697,306.928814,112.2696308,8.949594431,14.97750289,-9999,338920.289,1.107818604,0.417449951,-0.348937988,338920.279,-2.308386498,1.155200667,-0.612901344,-1.046716332,1.148991823,2.715345144,0.490951121,-0.163896799,-0.028638691,XArbitraryZVertical,0.373779265,0.441774867,-0.797081018,0.172585274,0.748352408,0.575243115,-0.330248058,0,0,0,-1,-1,338918.1269,unknown,2,2023-02-21T15:24:59.446-08:00,2023-02-14T17:43:35.488-08:00,39765,1.286214,0.8297687,0,29526.48,73,92,2023-02-21T15:24:59.446-08:00,698714699.5,0,9.380001,99.17213,1,0.53,0
2023-02-21T15:25:01.645-08:00,1677021901,34.06384128,-118.4510528,120.2881,0.8410121,2.330697,306.928814,112.2696308,8.949594431,14.97750289,-9999,338920.324,1.385437012,0.259994507,-0.294799805,338920.309,-2.24301773,1.228892448,-0.546740618,-0.716717541,1.40019083,2.780248404,0.288314342,-0.139321029,-0.070894599,XArbitraryZVertical,0.40419805,0.439796881,-0.776271489,0.201507411,0.80477953,0.519905746,-0.286405265,0,0,0,-1,-1,338918.1269,unknown,2,2023-02-21T15:24:59.446-08:00,2023-02-14T17:43:35.488-08:00,39765,1.286214,0.8297687,0,29526.48,73,92,2023-02-21T15:24:59.446-08:00,698714699.5,0,9.380001,99.17213,1,0.53,0
2023-02-21T15:25:01.680-08:00,1677021901,34.06384128,-118.4510528,120.2881,0.8410121,2.330697,306.928814,112.2696308,8.949594431,14.97750289,-9999,338920.359,1.441833496,0.252029419,-0.220001221,338920.339,-2.189019844,1.292750725,-0.471654658,-0.92300117,1.013127089,2.955348015,0.584679425,-0.22618103,-0.023481369,XArbitraryZVertical,0.434934671,0.43425502,-0.75431136,0.230800276,0.856604695,0.454360902,-0.244508818,0,0,0,-1,-1,338918.1269,unknown,2,2023-02-21T15:24:59.446-08:00,2023-02-14T17:43:35.488-08:00,39765,1.286214,0.8297687,0,29526.48,73,92,2023-02-21T15:24:59.446-08:00,698714699.5,0,9.380001,99.17213,1,0.53,0
2023-02-21T15:25:01.715-08:00,1677021901,34.06384128,-118.4510528,120.2881,0.8410121,2.330697,306.928814,112.2696308,8.949594431,14.97750289,-9999,338920.3941,1.233520508,0.445541382,-0.463943481,338920.369,-2.119910906,1.345178712,-0.390969319,-1.81566453,0.602842331,3.256895542,0.540724814,-0.129055411,-0.013173923,XArbitraryZVertical,0.458840194,0.431337462,-0.728518537,0.269581771,0.901108623,0.38108477,-0.206827343,0,0,0,-1,-1,338918.1269,unknown,2,2023-02-21T15:24:59.446-08:00,2023-02-14T17:43:35.488-08:00,39765,1.286214,0.8297687,0,29526.48,73,92,2023-02-21T15:24:59.446-08:00,698714699.5,0,9.380001,99.17213,1,0.53,0
2023-02-21T15:25:01.750-08:00,1677021901,34.06384128,-118.4510528,120.2881,0.8410121,2.330697,306.928814,112.2696308,8.949594431,14.97750289,-9999,338920.4291,0.963058472,0.550949097,-0.439620972,338920.3991,-2.029898848,1.390061846,-0.307220036,-2.514062405,0.311668366,3.277563334,0.323516905,0.122455716,-0.281850338,XArbitraryZVertical,0.47558465,0.433764169,-0.696431372,0.317255763,0.937652528,0.302410007,-0.171335772,0,0,0,-1,-1,338918.1269,unknown,2,2023-02-21T15:24:59.446-08:00,2023-02-14T17:43:35.488-08:00,39765,1.286214,0.8297687,0,29526.48,73,92,2023-02-21T15:24:59.446-08:00,698714699.5,0,9.380001,99.17213,1,0.53,0
2023-02-21T15:25:01.785-08:00,1677021901,34.06384128,-118.4510528,120.2881,0.8410121,2.330697,306.928814,112.2696308,8.949594431,14.97750289,-9999,338920.4641,0.752944946,0.619094849,-0.325836182,338920.4591,-1.860867252,1.42953516,-0.15639941,-1.514692664,-0.148528278,2.515344381,-0.067234576,0.53195107,-0.25947094,XArbitraryZVertical,0.488727377,0.437731484,-0.634358051,0.408811148,0.977955341,0.155762583,-0.139073402,0,0,0,-1,-1,338918.1269,unknown,2,2023-02-21T15:24:59.446-08:00,2023-02-14T17:43:35.488-08:00,39765,1.286214,0.8297687,0,29526.48,73,92,2023-02-21T15:24:59.446-08:00,698714699.5,0,9.380001,99.17213,1,0.53,0
2023-02-21T15:25:01.820-08:00,1677021901,34.06384128,-118.4510528,120.2881,0.8410121,2.330697,306.928814,112.2696308,8.949594431,14.97750289,-9999,338920.4992,0.643600464,0.580703735,-0.269454956,338920.4892,-1.817986371,1.433035793,-0.093640619,-0.763915539,-0.034770288,2.00662756,-0.307704449,0.515688062,-0.151331902,XArbitraryZVertical,0.495853137,0.431007979,-0.613134466,0.43866604,0.986186445,0.093503833,-0.136723578,0,0,0,-1,-1,338918.1269,unknown,2,2023-02-21T15:24:59.446-08:00,2023-02-14T17:43:35.488-08:00,39765,1.286214,0.8297687,0,29526.48,73,92,2023-02-21T15:24:59.446-08:00,698714699.5,0,9.380001,99.17213,1,0.53,0
2023-02-21T15:25:01.855-08:00,1677021901,34.06384128,-118.4510528,120.2881,0.8410121,2.330697,306.928814,112.2696308,8.949594431,14.97750289,-9999,338920.5342,0.631286621,0.576828003,-0.259902954,338920.5192,-1.793777847,1.434445738,-0.042852961,-0.430523694,0.006927624,1.558092713,-0.357362866,0.53194344,-0.126174435,XArbitraryZVertical,0.50340869,0.422703026,-0.597534368,0.459188859,0.989809036,0.042839848,-0.135803685,0,0,0,-1,-1,338918.1269,unknown,2,2023-02-21T15:24:59.446-08:00,2023-02-14T17:43:35.488-08:00,39765,1.286214,0.8297687,0,29526.48,73,92,2023-02-21T15:24:59.446-08:00,698714699.5,0,9.380001,99.17213,1,0.53,0
2023-02-21T15:25:01.890-08:00,1677021901,34.06384128,-118.4510528,120.2881,0.8410121,2.330697,306.928814,112.2696308,8.949594431,14.97750289,-9999,338920.5692,0.69203186,0.578796387,-0.283752441,338920.5492,-1.77860699,1.435449443,-0.003558011,-0.195729434,0.032456554,1.18736124,-0.356189549,0.577115238,-0.127914771,XArbitraryZVertical,0.509925208,0.415342874,-0.585776998,0.473636713,0.990848184,0.003558004,-0.134933159,0,0,0,-1,-1,338918.1269,unknown,2,2023-02-21T15:24:59.446-08:00,2023-02-14T17:43:35.488-08:00,39765,1.286214,0.8297687,0,29526.48,73,92,2023-02-21T15:24:59.446-08:00,698714699.5,0,9.380001,99.17213,1,0.53,0
2023-02-21T15:25:01.925-08:00,1677021901,34.06384128,-118.4510528,120.2881,0.8410121,2.330697,306.928814,112.2696308,8.949594431,14.97750289,-9999,338920.6043,0.807113647,0.611968994,-0.320495605,338920.5792,-1.771865044,1.436179225,0.027643029,0.014387907,0.009444378,0.947526872,-0.29854238,0.606435895,-0.149592876,XArbitraryZVertical,0.516118741,0.408095135,-0.577444033,0.483361357,0.990574181,-0.027639508,-0.13415961,0,0,0,-1,-1,338918.1269,unknown,2,2023-02-21T15:24:59.446-08:00,2023-02-14T17:43:35.488-08:00,39765,1.286214,0.8297687,0,29526.48,73,92,2023-02-21T15:24:59.446-08:00,698714699.5,0,9.380001,99.17213,1,0.53,0
2023-02-21T15:25:01.960-08:00,1677021901,34.06384128,-118.4510528,120.2881,0.8410121,2.330697,306.928814,112.2696308,8.949594431,14.97750289,-9999,338920.6393,0.929016113,0.595413208,-0.276397705,338920.6093,-1.770824481,1.435264292,0.052631128,0.092899814,-0.064131372,0.702159107,-0.199754179,0.661768198,-0.186969057,XArbitraryZVertical,0.521471248,0.400752469,-0.572082716,0.490088338,0.989457607,-0.052606832,-0.134930387,0,0,0,-1,-1,338918.1269,unknown,2,2023-02-21T15:24:59.446-08:00,2023-02-14T17:43:35.488-08:00,39765,1.286214,0.8297687,0,29526.48,73,92,2023-02-21T15:24:59.446-08:00,698714699.5,0,9.380001,99.17213,1,0.53,0
2023-02-21T15:25:01.995-08:00,1677021901,34.06384128,-118.4510528,120.2881,0.8410121,2.330697,306.928814,112.2696308,8.949594431,14.97750289,-9999,338920.6743,1.17527771,0.590255737,-0.323501587,338920.6693,-1.760663335,1.429241985,0.072782956,-0.376614302,-0.165587887,-0.042288188,0.103962183,0.663233876,-0.17095226,XArbitraryZVertical,0.522396297,0.395913916,-0.56675958,0.499137079,0.987376869,-0.07271871,-0.140708566,0,0,0,-1,-1,338918.1269,unknown,2,2023-02-21T15:24:59.446-08:00,2023-02-14T17:43:35.488-08:00,39765,1.286214,0.8297687,0,29526.48,73,92,2023-02-21T15:24:59.446-08:00,698714699.5,0,9.380001,99.17213,1,0.53,0
2023-02-21T15:25:02.030-08:00,1677021901,34.06384128,-118.4510528,120.2881,0.8410121,2.330697,306.928814,112.2696308,8.949594431,14.97750289,-9999,338920.7094,1.248931885,0.594512939,-0.219390869,338920.6994,-1.744133824,1.421604454,0.061007074,-0.806632102,-0.156410247,-0.586152256,0.189721227,0.651789546,-0.135801911,XArbitraryZVertical,0.51418383,0.401788175,-0.567177176,0.502485077,0.987051785,-0.060969237,-0.148362502,0,0,0,-1,-1,338918.1269,unknown,2,2023-02-21T15:24:59.446-08:00,2023-02-14T17:43:35.488-08:00,39765,1.286214,0.8297687,0,29526.48,73,92,2023-02-21T15:24:59.446-08:00,698714699.5,0,9.380001,99.17213,1,0.53,0
2023-02-21T15:25:02.065-08:00,1677021901,34.06384128,-118.4510528,120.2881,0.8410121,2.330697,306.928814,112.2696308,8.949594431,14.97750289,-9999,338920.7444,1.48840332,0.698822021,-0.351638794,338920.7294,-1.726395398,1.419531542,0.033139911,-0.49076122,-0.031362042,-1.052696228,0.381483555,0.652671218,-0.087812781,XArbitraryZVertical,0.503311113,0.413974634,-0.569316569,0.501180154,0.98803848,-0.033133846,-0.150605857,0,0,0,-1,-1,338918.1269,unknown,2,2023-02-21T15:24:59.446-08:00,2023-02-14T17:43:35.488-08:00,39765,1.286214,0.8297687,0,29526.48,73,92,2023-02-21T15:24:59.446-08:00,698714699.5,0,9.380001,99.17213,1,0.53,0
2023-02-21T15:25:02.100-08:00,1677021902,34.06384491,-118.4510629,121.467,0.9299013,1.45042,304.8005695,73.74908443,8.977549728,14.96076316,-9999,338920.7794,1.199356079,0.701293945,-0.38343811,338920.7594,-1.729407479,1.416022813,-0.004549166,0.297629207,-0.179324538,-1.477249384,0.475907207,0.70921123,-0.218175039,XArbitraryZVertical,0.493711406,0.423286771,-0.578983328,0.491788128,0.988036156,0.00454915,-0.154154718,0,0,0,-1,-1,338920.6893,unknown,2,2023-02-21T15:25:02.008-08:00,2023-02-14T17:43:35.488-08:00,39768,1.286241,1.652287,0,29528.65,73,92,2023-02-21T15:25:02.008-08:00,698714702.1,0,9.209999,99.17397,1,0.53,0
2023-02-21T15:25:02.135-08:00,1677021902,34.06384491,-118.4510629,121.467,0.9299013,1.45042,304.8005695,73.74908443,8.977549728,14.96076316,-9999,338920.8145,1.095214844,0.530395508,-0.179397583,338920.7894,-1.755401366,1.407941714,-0.055498544,0.858706117,-0.22988385,-2.157984495,0.214106798,0.645823896,-0.221552074,XArbitraryZVertical,0.484206102,0.429652668,-0.597647297,0.47303354,0.985249162,0.055470057,-0.161886066,0,0,0,-1,-1,338920.6893,unknown,2,2023-02-21T15:25:02.008-08:00,2023-02-14T17:43:35.488-08:00,39768,1.286241,1.652287,0,29528.65,73,92,2023-02-21T15:25:02.008-08:00,698714702.1,0,9.209999,99.17397,1,0.53,0
2023-02-21T15:25:02.170-08:00,1677021902,34.06384491,-118.4510629,121.467,0.9299013,1.45042,304.8005695,73.74908443,8.977549728,14.96076316,-9999,338920.8495,1.332870483,0.453735352,-0.224136353,338920.8195,-1.803364632,1.400134529,-0.124212037,1.534174323,-0.032359131,-2.789846897,0.076746345,0.428597331,-0.025169,XArbitraryZVertical,0.474928097,0.436096627,-0.623533602,0.442118422,0.977879941,0.123892881,-0.168526068,0,0,0,-1,-1,338920.6893,unknown,2,2023-02-21T15:25:02.008-08:00,2023-02-14T17:43:35.488-08:00,39768,1.286241,1.652287,0,29528.65,73,92,2023-02-21T15:25:02.008-08:00,698714702.1,0,9.209999,99.17397,1,0.53,0
2023-02-21T15:25:02.205-08:00,1677021902,34.06384491,-118.4510629,121.467,0.9299013,1.45042,304.8005695,73.74908443,8.977549728,14.96076316,-9999,338920.8845,1.380950928,0.360809326,-0.242248535,338920.8795,-1.969904274,1.35271333,-0.272819371,2.470388889,-0.530603588,-2.826351881,0.46343565,0.12401548,-0.041796178,XArbitraryZVertical,0.45809423,0.431244108,-0.69084137,0.356253058,0.940204978,0.269447595,-0.208356395,0,0,0,-1,-1,338920.6893,unknown,2,2023-02-21T15:25:02.008-08:00,2023-02-14T17:43:35.488-08:00,39768,1.286241,1.652287,0,29528.65,73,92,2023-02-21T15:25:02.008-08:00,698714702.1,0,9.209999,99.17397,1,0.53,0
2023-02-21T15:25:02.240-08:00,1677021902,34.06384491,-118.4510629,121.467,0.9299013,1.45042,304.8005695,73.74908443,8.977549728,14.96076316,-9999,338920.9196,1.20993042,0.326171875,-0.188613892,338920.9096,-2.058454853,1.304931397,-0.337526722,1.905597925,-0.846356153,-2.687559605,0.405493319,0.017875135,0.031137317,XArbitraryZVertical,0.444076952,0.422890271,-0.723779024,0.316390924,0.910424471,0.331154376,-0.247918963,0,0,0,-1,-1,338920.6893,unknown,2,2023-02-21T15:25:02.008-08:00,2023-02-14T17:43:35.488-08:00,39768,1.286241,1.652287,0,29528.65,73,92,2023-02-21T15:25:02.008-08:00,698714702.1,0,9.209999,99.17397,1,0.53,0
2023-02-21T15:25:02.276-08:00,1677021902,34.06384491,-118.4510629,121.467,0.9299013,1.45042,304.8005695,73.74908443,8.977549728,14.96076316,-9999,338920.9546,1.025192261,0.273086548,-0.145797729,338920.9396,-2.131290194,1.250618618,-0.399851041,1.291990399,-0.98693037,-2.625348091,0.27557981,-0.071074396,0.116980702,XArbitraryZVertical,0.424112633,0.418538161,-0.751640821,0.282825336,0.874307156,0.389281124,-0.289908558,0,0,0,-1,-1,338920.6893,unknown,2,2023-02-21T15:25:02.008-08:00,2023-02-14T17:43:35.488-08:00,39768,1.286241,1.652287,0,29528.65,73,92,2023-02-21T15:25:02.008-08:00,698714702.1,0,9.209999,99.17397,1,0.53,0
2023-02-21T15:25:02.310-08:00,1677021902,34.06384491,-118.4510629,121.467,0.9299013,1.45042,304.8005695,73.74908443,8.977549728,14.96076316,-9999,338920.9896,0.892807007,0.263336182,-0.124191284,338920.9696,-2.195095424,1.1930044,-0.463455174,0.918565035,-1.042207122,-2.688000679,0.174715817,-0.175847083,0.188066691,XArbitraryZVertical,0.400049035,0.418308106,-0.775496671,0.252158613,0.831433356,0.447041482,-0.3299582,0,0,0,-1,-1,338920.6893,unknown,2,2023-02-21T15:25:02.008-08:00,2023-02-14T17:43:35.488-08:00,39768,1.286241,1.652287,0,29528.65,73,92,2023-02-21T15:25:02.008-08:00,698714702.1,0,9.209999,99.17397,1,0.53,0
2023-02-21T15:25:02.346-08:00,1677021902,34.06384491,-118.4510629,121.467,0.9299013,1.45042,304.8005695,73.74908443,8.977549728,14.96076316,-9999,338921.0247,0.850112915,0.23298645,-0.08531189,338920.9996,-2.258549224,1.130983167,-0.530527186,0.804068029,-1.068899155,-2.880827427,0.112353504,-0.242652059,0.24305287,XArbitraryZVertical,0.37291492,0.421084781,-0.796684235,0.221169861,0.780453384,0.505988121,-0.367244154,0,0,0,-1,-1,338920.6893,unknown,2,2023-02-21T15:25:02.008-08:00,2023-02-14T17:43:35.488-08:00,39768,1.286241,1.652287,0,29528.65,73,92,2023-02-21T15:25:02.008-08:00,698714702.1,0,9.209999,99.17397,1,0.53,0
2023-02-21T15:25:02.380-08:00,1677021902,34.06384491,-118.4510629,121.467,0.9299013,1.45042,304.8005695,73.74908443,8.977549728,14.96076316,-9999,338921.0597,0.828598022,0.137542725,-0.021011353,338921.0297,-2.330558066,1.059195159,-0.598628069,0.679715872,-1.113867283,-3.000258923,0.141465247,-0.323672116,0.309654146,XArbitraryZVertical,0.343187797,0.424265571,-0.816524959,0.188435047,0.720335782,0.563509643,-0.404441714,0,0,0,-1,-1,338920.6893,unknown,2,2023-02-21T15:25:02.008-08:00,2023-02-14T17:43:35.488-08:00,39768,1.286241,1.652287,0,29528.65,73,92,2023-02-21T15:25:02.008-08:00,698714702.1,0,9.209999,99.17397,1,0.53,0
2023-02-21T15:25:02.415-08:00,1677021902,34.06384491,-118.4510629,121.467,0.9299013,1.45042,304.8005695,73.74908443,8.977549728,14.96076316,-9999,338921.0947,0.711624146,-0.046859741,0.018936157,338921.0897,-2.473289499,0.906118347,-0.723474602,-0.098327719,-1.042636633,-2.343188763,0.181441784,-0.673345506,0.475302577,XArbitraryZVertical,0.282388788,0.434862655,-0.845217216,0.129456085,0.589950979,0.661992908,-0.462302089,0,0,0,-1,-1,338920.6893,unknown,2,2023-02-21T15:25:02.008-08:00,2023-02-14T17:43:35.488-08:00,39768,1.286241,1.652287,0,29528.65,73,92,2023-02-21T15:25:02.008-08:00,698714702.1,0,9.209999,99.17397,1,0.53,0
2023-02-21T15:25:02.451-08:00,1677021902,34.06384491,-118.4510629,121.467,0.9299013,1.45042,304.8005695,73.74908443,8.977549728,14.96076316,-9999,338921.1298,0.635253906,0.068496704,-0.033294678,338921.1198,-2.514168863,0.85032425,-0.778536391,-0.69206351,-0.775587201,-1.723989964,0.125593483,-0.716856182,0.473465174,XArbitraryZVertical,0.256298328,0.446612838,-0.849991057,0.111190092,0.535020411,0.702238142,-0.469696283,0,0,0,-1,-1,338920.6893,unknown,2,2023-02-21T15:25:02.008-08:00,2023-02-14T17:43:35.488-08:00,39768,1.286241,1.652287,0,29528.65,73,92,2023-02-21T15:25:02.008-08:00,698714702.1,0,9.209999,99.17397,1,0.53,0
2023-02-21T15:25:02.486-08:00,1677021902,34.06384491,-118.4510629,121.467,0.9299013,1.45042,304.8005695,73.74908443,8.977549728,14.96076316,-9999,338921.1648,0.715133667,0.240020752,-0.10307312,338921.1498,-2.529137079,0.822572785,-0.825536903,-0.749915242,-0.386099517,-1.022953749,0.154861659,-0.611132741,0.401061565,XArbitraryZVertical,0.238328431,0.460987837,-0.848910399,0.100203619,0.497024268,0.734911978,-0.461379558,0,0,0,-1,-1,338920.6893,unknown,2,2023-02-21T15:25:02.008-08:00,2023-02-14T17:43:35.488-08:00,39768,1.286241,1.652287,0,29528.65,73,92,2023-02-21T15:25:02.008-08:00,698714702.1,0,9.209999,99.17397,1,0.53,0
2023-02-21T15:25:02.521-08:00,1677021902,34.06384491,-118.4510629,121.467,0.9299013,1.45042,304.8005695,73.74908443,8.977549728,14.96076316,-9999,338921.1998,0.89112854,0.214981079,-0.112991333,338921.1798,-2.530040974,0.815559935,-0.848335125,-0.268089324,-0.056745894,-0.121212795,0.255122185,-0.504605711,0.345155984,XArbitraryZVertical,0.2309284,0.469092141,-0.846975179,0.096216457,0.481450021,0.750180602,-0.453249276,0,0,0,-1,-1,338920.6893,unknown,2,2023-02-21T15:25:02.008-08:00,2023-02-14T17:43:35.488-08:00,39768,1.286241,1.652287,0,29528.65,73,92,2023-02-21T15:25:02.008-08:00,698714702.1,0,9.209999,99.17397,1,0.53,0
2023-02-21T15:25:02.556-08:00,1677021902,34.06384491,-118.4510629,121.467,0.9299013,1.45042,304.8005695,73.74908443,8.977549728,14.96076316,-9999,338921.2349,1.079925537,0.176635742,-0.076629639,338921.2098,-2.514303287,0.829001341,-0.844153685,-0.128631562,0.186993062,0.788965464,0.401321501,-0.532428145,0.335861176,XArbitraryZVertical,0.233779157,0.47002241,-0.845156115,0.100683716,0.48980698,0.747409105,-0.448852479,0,0,0,-1,-1,338920.6893,unknown,2,2023-02-21T15:25:02.008-08:00,2023-02-14T17:43:35.488-08:00,39768,1.286241,1.652287,0,29528.65,73,92,2023-02-21T15:25:02.008-08:00,698714702.1,0,9.209999,99.17397,1,0.53,0
2023-02-21T15:25:02.591-08:00,1677021902,34.06384491,-118.4510629,121.467,0.9299013,1.45042,304.8005695,73.74908443,8.977549728,14.96076316,-9999,338921.2699,1.240646362,0.193237305,-0.120483398,338921.2399,-2.471367298,0.873176394,-0.819101622,-0.231311977,0.626335621,1.752291083,0.513342857,-0.556475699,0.364413023,XArbitraryZVertical,0.247630333,0.468337948,-0.840391915,0.114368478,0.523339272,0.730532646,-0.438677579,0,0,0,-1,-1,338920.6893,unknown,2,2023-02-21T15:25:02.008-08:00,2023-02-14T17:43:35.488-08:00,39768,1.286241,1.652287,0,29528.65,73,92,2023-02-21T15:25:02.008-08:00,698714702.1,0,9.209999,99.17397,1,0.53,0
2023-02-21T15:25:02.626-08:00,1677021902,34.06384491,-118.4510629,121.467,0.9299013,1.45042,304.8005695,73.74908443,8.977549728,14.96076316,-9999,338921.3049,1.138381958,0.383224487,-0.377929688,338921.2999,-2.308768362,1.036968442,-0.705218984,-0.745525181,1.023518324,3.344434977,0.525339425,-0.3708722,0.138558954,XArbitraryZVertical,0.304003939,0.462440744,-0.81469975,0.173188748,0.655522943,0.648200572,-0.387460321,0,0,0,-1,-1,338920.6893,unknown,2,2023-02-21T15:25:02.008-08:00,2023-02-14T17:43:35.488-08:00,39768,1.286241,1.652287,0,29528.65,73,92,2023-02-21T15:25:02.008-08:00,698714702.1,0,9.209999,99.17397,1,0.53,0
2023-02-21T15:25:02.661-08:00,1677021902,34.06384491,-118.4510629,121.467,0.9299013,1.45042,304.8005695,73.74908443,8.977549728,14.96076316,-9999,338921.34,1.194976807,0.407546997,-0.389068604,338921.33,-2.226884163,1.119322341,-0.623337266,-0.395792425,1.099194646,3.4776752,0.391487241,-0.131370783,-0.085837871,XArbitraryZVertical,0.338637587,0.456293916,-0.795596266,0.210111676,0.730582952,0.583748043,-0.354240894,0,0,0,-1,-1,338920.6893,unknown,2,2023-02-21T15:25:02.008-08:00,2023-02-14T17:43:35.488-08:00,39768,1.286241,1.652287,0,29528.65,73,92,2023-02-21T15:25:02.008-08:00,698714702.1,0,9.209999,99.17397,1,0.53,0
2023-02-21T15:25:02.696-08:00,1677021902,34.06384491,-118.4510629,121.467,0.9299013,1.45042,304.8005695,73.74908443,8.977549728,14.96076316,-9999,338921.375,1.548858643,0.285095215,-0.214035034,338921.36,-2.16807385,1.18741266,-0.526830671,-0.068217225,1.216359377,3.72222662,0.49372679,-0.149662137,-0.002175927,XArbitraryZVertical,0.376450865,0.443412703,-0.775469244,0.24559585,0.801652789,0.502796292,-0.32333985,0,0,0,-1,-1,338920.6893,unknown,2,2023-02-21T15:25:02.008-08:00,2023-02-14T17:43:35.488-08:00,39768,1.286241,1.652287,0,29528.65,73,92,2023-02-21T15:25:02.008-08:00,698714702.1,0,9.209999,99.17397,1,0.53,0
2023-02-21T15:25:02.731-08:00,1677021902,34.06384491,-118.4510629,121.467,0.9299013,1.45042,304.8005695,73.74908443,8.977549728,14.96076316,-9999,338921.41,1.396789551,0.354202271,-0.284500122,338921.39,-2.118869299,1.242927132,-0.422041827,-0.372051924,0.935730577,3.807448149,0.707370341,-0.126420915,0.088585079,XArbitraryZVertical,0.413147206,0.427111661,-0.752975032,0.28268963,0.863659143,0.409623981,-0.293770015,0,0,0,-1,-1,338920.6893,unknown,2,2023-02-21T15:25:02.008-08:00,2023-02-14T17:43:35.488-08:00,39768,1.286241,1.652287,0,29528.65,73,92,2023-02-21T15:25:02.008-08:00,698714702.1,0,9.209999,99.17397,1,0.53,0
2023-02-21T15:25:02.766-08:00,1677021902,34.06384491,-118.4510629,121.467,0.9299013,1.45042,304.8005695,73.74908443,8.977549728,14.96076316,-9999,338921.4451,1.230743408,0.572509766,-0.394821167,338921.42,-2.057175227,1.28816753,-0.320663057,-1.298846841,0.648921609,3.721697569,0.485414982,0.039006352,-0.019834518,XArbitraryZVertical,0.441868491,0.415234201,-0.725639672,0.325238092,0.911374569,0.315195888,-0.264665604,0,0,0,-1,-1,338920.6893,unknown,2,2023-02-21T15:25:02.008-08:00,2023-02-14T17:43:35.488-08:00,39768,1.286241,1.652287,0,29528.65,73,92,2023-02-21T15:25:02.008-08:00,698714702.1,0,9.209999,99.17397,1,0.53,0
2023-02-21T15:25:02.801-08:00,1677021902,34.06384491,-118.4510629,121.467,0.9299013,1.45042,304.8005695,73.74908443,8.977549728,14.96076316,-9999,338921.4801,0.944107056,0.618408203,-0.311050415,338921.4501,-1.981118447,1.323540335,-0.232901938,-1.837961674,0.307068408,3.249361992,0.313594282,0.294390202,-0.153434679,XArbitraryZVertical,0.460206867,0.411268095,-0.694461594,0.369852927,0.943409383,0.230802074,-0.238136381,0,0,0,-1,-1,338920.6893,unknown,2,2023-02-21T15:25:02.008-08:00,2023-02-14T17:43:35.488-08:00,39768,1.286241,1.652287,0,29528.65,73,92,2023-02-21T15:25:02.008-08:00,698714702.1,0,9.209999,99.17397,1,0.53,0
2023-02-21T15:25:02.836-08:00,1677021902,34.06384491,-118.4510629,121.467,0.9299013,1.45042,304.8005695,73.74908443,8.977549728,14.96076316,-9999,338921.5151,0.740432739,0.552719116,-0.252883911,338921.5101,-1.854457569,1.364913679,-0.091324375,-0.830114424,0.317119837,2.172571659,-0.17350173,0.497074604,-0.070834756,XArbitraryZVertical,0.482754676,0.406396676,-0.637417436,0.442140895,0.97480166,0.091197483,-0.203579336,0,0,0,-1,-1,338920.6893,unknown,2,2023-02-21T15:25:02.008-08:00,2023-02-14T17:43:35.488-08:00,39768,1.286241,1.652287,0,29528.65,73,92,2023-02-21T15:25:02.008-08:00,698714702.1,0,9.209999,99.17397,1,0.53,0
2023-02-21T15:25:02.871-08:00,1677021902,34.06384491,-118.4510629,121.467,0.9299013,1.45042,304.8005695,73.74908443,8.977549728,14.96076316,-9999,338921.5502,0.69380188,0.539276123,-0.247909546,338921.5402,-1.825494508,1.377074213,-0.037652408,-0.41446349,0.353936583,1.717077971,-0.268257737,0.517715335,-0.058356225,XArbitraryZVertical,0.493747572,0.40003151,-0.618142948,0.462695745,0.980598927,0.037643511,-0.192376256,0,0,0,-1,-1,338920.6893,unknown,2,2023-02-21T15:25:02.008-08:00,2023-02-14T17:43:35.488-08:00,39768,1.286241,1.652287,0,29528.65,73,92,2023-02-21T15:25:02.008-08:00,698714702.1,0,9.209999,99.17397,1,0.53,0
2023-02-21T15:25:02.906-08:00,1677021902,34.06384491,-118.4510629,121.467,0.9299013,1.45042,304.8005695,73.74908443,8.977549728,14.96076316,-9999,338921.5852,0.713699341,0.545654297,-0.276794434,338921.5702,-1.806884677,1.388134438,0.006456019,-0.26646477,0.362413615,1.408706307,-0.292028487,0.543702722,-0.071362004,XArbitraryZVertical,0.503968567,0.393946283,-0.602464833,0.477344787,0.983343065,-0.006455974,-0.181644022,0,0,0,-1,-1,338920.6893,unknown,2,2023-02-21T15:25:02.008-08:00,2023-02-14T17:43:35.488-08:00,39768,1.286241,1.652287,0,29528.65,73,92,2023-02-21T15:25:02.008-08:00,698714702.1,0,9.209999,99.17397,1,0.53,0
2023-02-21T15:25:02.941-08:00,1677021902,34.06384491,-118.4510629,121.467,0.9299013,1.45042,304.8005695,73.74908443,8.977549728,14.96076316,-9999,338921.6202,0.786819458,0.586868286,-0.323013306,338921.6002,-1.794480827,1.398868012,0.044825151,-0.092249587,0.364061534,1.261242986,-0.261107266,0.589915156,-0.113055438,XArbitraryZVertical,0.513758189,0.388068534,-0.588942273,0.488469169,0.984266877,-0.044810142,-0.170910671,0,0,0,-1,-1,338920.6893,unknown,2,2023-02-21T15:25:02.008-08:00,2023-02-14T17:43:35.488-08:00,39768,1.286241,1.652287,0,29528.65,73,92,2023-02-21T15:25:02.008-08:00,698714702.1,0,9.209999,99.17397,1,0.53,0
2023-02-21T15:25:02.976-08:00,1677021902,34.06384491,-118.4510629,121.467,0.9299013,1.45042,304.8005695,73.74908443,8.977549728,14.96076316,-9999,338921.6553,0.812194824,0.601608276,-0.327346802,338921.6302,-1.788513535,1.408475134,0.080399834,0.090736046,0.292657733,1.124201775,-0.196847558,0.667181611,-0.161926091,XArbitraryZVertical,0.523616019,0.381159587,-0.577475565,0.497056926,0.983666956,-0.080313243,-0.161087275,0,0,0,-1,-1,338920.6893,unknown,2,2023-02-21T15:25:02.008-08:00,2023-02-14T17:43:35.488-08:00,39768,1.286241,1.652287,0,29528.65,73,92,2023-02-21T15:25:02.008-08:00,698714702.1,0,9.209999,99.17397,1,0.53,0
2023-02-21T15:25:03.011-08:00,1677021902,34.06384491,-118.4510629,121.467,0.9299013,1.45042,304.8005695,73.74908443,8.977549728,14.96076316,-9999,338921.6903,0.965179443,0.62701416,-0.381500244,338921.6603,-1.787245696,1.416014505,0.111595937,0.144357517,0.248602882,0.909996271,-0.167262971,0.71083653,-0.175026283,XArbitraryZVertical,0.532582981,0.373834972,-0.568391599,0.503521317,0.981899142,-0.111364454,-0.153205559,0,0,0,-1,-1,338920.6893,unknown,2,2023-02-21T15:25:02.008-08:00,2023-02-14T17:43:35.488-08:00,39768,1.286241,1.652287,0,29528.65,73,92,2023-02-21T15:25:02.008-08:00,698714702.1,0,9.209999,99.17397,1,0.53,0
2023-02-21T15:25:03.047-08:00,1677021902,34.06384491,-118.4510629,121.467,0.9299013,1.45042,304.8005695,73.74908443,8.977549728,14.96076316,-9999,338921.7253,1.078765869,0.674789429,-0.389038086,338921.7203,-1.792779175,1.429189461,0.14755586,0.18435581,0.107773416,0.122473955,0.073944211,0.816393614,-0.275194526,XArbitraryZVertical,0.545223982,0.364596489,-0.558226394,0.508117561,0.979232609,-0.147020996,-0.139600426,0,0,0,-1,-1,338920.6893,unknown,2,2023-02-21T15:25:02.008-08:00,2023-02-14T17:43:35.488-08:00,39768,1.286241,1.652287,0,29528.65,73,92,2023-02-21T15:25:02.008-08:00,698714702.1,0,9.209999,99.17397,1,0.53,0
2023-02-21T15:25:03.081-08:00,1677021903,34.06385075,-118.4510743,121.6315,0.9773877,1.598743,304.0986245,75.93976334,8.867435694,15.02629088,-9999,338921.7604,1.39755249,0.676132202,-0.364517212,338921.7504,-1.798190778,1.434715764,0.142834422,0.232644454,0.272912621,-0.46361497,0.138413608,0.803741455,-0.191953525,XArbitraryZVertical,0.546736683,0.365977155,-0.559152041,0.504468608,0.980665863,-0.142349243,-0.134279445,0,0,0,-1,-1,338920.6893,unknown,2,2023-02-21T15:25:02.008-08:00,2023-02-14T17:43:35.488-08:00,39768,1.286241,1.652287,0,29528.65,73,92,2023-02-21T15:25:02.008-08:00,698714702.1,0,9.209999,99.17397,1,0.53,0
2023-02-21T15:25:03.116-08:00,1677021903,34.06385075,-118.4510743,121.6315,0.9773877,1.598743,304.0986245,75.93976334,8.867435694,15.02629088,-9999,338921.7954,1.515731812,0.771911621,-0.510269165,338921.7804,-1.816107198,1.441757136,0.123775806,0.795409739,-0.077691056,-0.961828411,0.546189547,0.831010044,-0.292881131,XArbitraryZVertical,0.547909624,0.368709353,-0.565946121,0.493511366,0.98409915,-0.123459995,-0.127696916,0,0,0,-1,-1,338920.6893,unknown,2,2023-02-21T15:25:02.008-08:00,2023-02-14T17:43:35.488-08:00,39768,1.286241,1.652287,0,29528.65,73,92,2023-02-21T15:25:02.008-08:00,698714702.1,0,9.209999,99.17397,1,0.53,0
2023-02-21T15:25:03.151-08:00,1677021903,34.06385075,-118.4510743,121.6315,0.9773877,1.598743,304.0986245,75.93976334,8.867435694,15.02629088,-9999,338921.8304,1.086624146,0.619903564,-0.253616333,338921.8104,-1.851093557,1.436198025,0.08961913,1.104154825,-0.493404031,-1.671507239,0.477544725,0.864523649,-0.367307603,XArbitraryZVertical,0.545431639,0.368344217,-0.583326563,0.475980039,0.986978531,-0.089499213,-0.13365373,0,0,0,-1,-1,338920.6893,unknown,2,2023-02-21T15:25:02.008-08:00,2023-02-14T17:43:35.488-08:00,39768,1.286241,1.652287,0,29528.65,73,92,2023-02-21T15:25:02.008-08:00,698714702.1,0,9.209999,99.17397,1,0.53,0
2023-02-21T15:25:03.186-08:00,1677021903,34.06385075,-118.4510743,121.6315,0.9773877,1.598743,304.0986245,75.93976334,8.867435694,15.02629088,-9999,338921.8655,1.306365967,0.467544556,-0.159118652,338921.8404,-1.893927083,1.423810649,0.030654602,1.209759116,-0.42215541,-2.594148159,0.09787178,0.650553346,-0.10722816,XArbitraryZVertical,0.536946029,0.372148994,-0.608590822,0.450345751,0.988752306,-0.030649802,-0.146388173,0,0,0,-1,-1,338920.6893,unknown,2,2023-02-21T15:25:02.008-08:00,2023-02-14T17:43:35.488-08:00,39768,1.286241,1.652287,0,29528.65,73,92,2023-02-21T15:25:02.008-08:00,698714702.1,0,9.209999,99.17397,1,0.53,0
2023-02-21T15:25:03.221-08:00,1677021903,34.06385075,-118.4510743,121.6315,0.9773877,1.598743,304.0986245,75.93976334,8.867435694,15.02629088,-9999,338921.9005,1.464370728,0.439651489,-0.227554321,338921.8705,-1.951039754,1.410612151,-0.049064917,1.851759195,-0.454506576,-3.1147542,0.279569328,0.425106406,0.009405717,XArbitraryZVertical,0.526126113,0.378863128,-0.639172324,0.413657874,0.986009955,0.049045231,-0.159308091,0,0,0,-1,-1,338920.6893,unknown,2,2023-02-21T15:25:02.008-08:00,2023-02-14T17:43:35.488-08:00,39768,1.286241,1.652287,0,29528.65,73,92,2023-02-21T15:25:02.008-08:00,698714702.1,0,9.209999,99.17397,1,0.53,0
2023-02-21T15:25:03.256-08:00,1677021903,34.06385075,-118.4510743,121.6315,0.9773877,1.598743,304.0986245,75.93976334,8.867435694,15.02629088,-9999,338921.9355,1.388793945,0.419189453,-0.228713989,338921.9305,-2.138532341,1.342029911,-0.204480582,2.769854307,-1.040178418,-2.99854064,0.49699676,0.240514383,-0.018991396,XArbitraryZVertical,0.503930712,0.367461536,-0.713662939,0.318921591,0.953656197,0.203058586,-0.22205171,0,0,0,-1,-1,338920.6893,unknown,2,2023-02-21T15:25:02.008-08:00,2023-02-14T17:43:35.488-08:00,39768,1.286241,1.652287,0,29528.65,73,92,2023-02-21T15:25:02.008-08:00,698714702.1,0,9.209999,99.17397,1,0.53,0
2023-02-21T15:25:03.292-08:00,1677021903,34.06385075,-118.4510743,121.6315,0.9773877,1.598743,304.0986245,75.93976334,8.867435694,15.02629088,-9999,338921.9706,1.162841797,0.332473755,-0.13381958,338921.9606,-2.236922979,1.283747763,-0.271046561,2.207533836,-1.280661106,-2.915524006,0.369815528,0.125326425,0.073140293,XArbitraryZVertical,0.486249564,0.356606537,-0.749168679,0.274115373,0.92406857,0.267739922,-0.272786289,0,0,0,-1,-1,338920.6893,unknown,2,2023-02-21T15:25:02.008-08:00,2023-02-14T17:43:35.488-08:00,39768,1.286241,1.652287,0,29528.65,73,92,2023-02-21T15:25:02.008-08:00,698714702.1,0,9.209999,99.17397,1,0.53,0
2023-02-21T15:25:03.326-08:00,1677021903,34.06385075,-118.4510743,121.6315,0.9773877,1.598743,304.0986245,75.93976334,8.867435694,15.02629088,-9999,338922.0056,0.962753296,0.239044189,-0.024658203,338921.9906,-2.321587996,1.218452545,-0.336116111,1.525367022,-1.36063993,-2.935395002,0.193695486,-0.031483173,0.233746767,XArbitraryZVertical,0.462733068,0.350691057,-0.779679082,0.234508777,0.886046827,0.329823047,-0.325787783,0,0,0,-1,-1,338920.6893,unknown,2,2023-02-21T15:25:02.008-08:00,2023-02-14T17:43:35.488-08:00,39768,1.286241,1.652287,0,29528.65,73,92,2023-02-21T15:25:02.008-08:00,698714702.1,0,9.209999,99.17397,1,0.53,0
2023-02-21T15:25:03.362-08:00,1677021903,34.06385075,-118.4510743,121.6315,0.9773877,1.598743,304.0986245,75.93976334,8.867435694,15.02629088,-9999,338922.0406,0.858474731,0.217437744,0.022415161,338922.0206,-2.395645401,1.150322386,-0.404753198,1.072227955,-1.382285476,-3.023715019,0.104836404,-0.156777143,0.360532045,XArbitraryZVertical,0.434775916,0.351232687,-0.805307942,0.19769843,0.839133322,0.393791914,-0.375211,0,0,0,-1,-1,338920.6893,unknown,2,2023-02-21T15:25:02.008-08:00,2023-02-14T17:43:35.488-08:00,39768,1.286241,1.652287,0,29528.65,73,92,2023-02-21T15:25:02.008-08:00,698714702.1,0,9.209999,99.17397,1,0.53,0
2023-02-21T15:25:03.396-08:00,1677021903,34.06385075,-118.4510743,121.6315,0.9773877,1.598743,304.0986245,75.93976334,8.867435694,15.02629088,-9999,338922.0757,0.825668335,0.213699341,0.019393921,338922.0506,-2.468648433,1.077925122,-0.474534232,0.864552855,-1.362405062,-3.046141148,0.07483989,-0.239486486,0.443291187,XArbitraryZVertical,0.404290918,0.355120873,-0.827249035,0.161545312,0.783634782,0.4569242,-0.420876026,0,0,0,-1,-1,338920.6893,unknown,2,2023-02-21T15:25:02.008-08:00,2023-02-14T17:43:35.488-08:00,39768,1.286241,1.652287,0,29528.65,73,92,2023-02-21T15:25:02.008-08:00,698714702.1,0,9.209999,99.17397,1,0.53,0
2023-02-21T15:25:03.432-08:00,1677021903,34.06385075,-118.4510743,121.6315,0.9773877,1.598743,304.0986245,75.93976334,8.867435694,15.02629088,-9999,338922.1107,0.789520264,0.190612793,0.019836426,338922.0807,-2.545113651,1.000224739,-0.538346391,0.823573172,-1.328775764,-2.828772306,0.108010769,-0.296530545,0.483356327,XArbitraryZVertical,0.373279313,0.358891926,-0.846057218,0.126673554,0.722555518,0.512716949,-0.463718265,0,0,0,-1,-1,338920.6893,unknown,2,2023-02-21T15:25:02.008-08:00,2023-02-14T17:43:35.488-08:00,39768,1.286241,1.652287,0,29528.65,73,92,2023-02-21T15:25:02.008-08:00,698714702.1,0,9.209999,99.17397,1,0.53,0
2023-02-21T15:25:03.467-08:00,1677021903,34.06385075,-118.4510743,121.6315,0.9773877,1.598743,304.0986245,75.93976334,8.867435694,15.02629088,-9999,338922.1457,0.812072754,0.183456421,0.03427124,338922.1407,-2.682948953,0.850543892,-0.633627133,0.223722801,-1.0498873,-1.865660667,0.185692608,-0.409576654,0.558671415,XArbitraryZVertical,0.317262621,0.365477495,-0.872149242,0.071597058,0.605734944,0.592071712,-0.531541288,0,0,0,-1,-1,338920.6893,unknown,2,2023-02-21T15:25:02.008-08:00,2023-02-14T17:43:35.488-08:00,39768,1.286241,1.652287,0,29528.65,73,92,2023-02-21T15:25:02.008-08:00,698714702.1,0,9.209999,99.17397,1,0.53,0
2023-02-21T15:25:03.502-08:00,1677021903,34.06385075,-118.4510743,121.6315,0.9773877,1.598743,304.0986245,75.93976334,8.867435694,15.02629088,-9999,338922.1808,0.873901367,0.188461304,0.030334473,338922.1708,-2.722450878,0.798467084,-0.667879577,-0.24741137,-0.785313785,-1.232242942,0.271631479,-0.429854214,0.590459943,XArbitraryZVertical,0.296377651,0.371784809,-0.877922144,0.05647132,0.562383354,0.619322538,-0.547872663,0,0,0,-1,-1,338920.6893,unknown,2,2023-02-21T15:25:02.008-08:00,2023-02-14T17:43:35.488-08:00,39768,1.286241,1.652287,0,29528.65,73,92,2023-02-21T15:25:02.008-08:00,698714702.1,0,9.209999,99.17397,1,0.53,0
2023-02-21T15:25:03.537-08:00,1677021903,34.06385075,-118.4510743,121.6315,0.9773877,1.598743,304.0986245,75.93976334,8.867435694,15.02629088,-9999,338922.2158,0.996734619,0.238235474,-0.035369873,338922.2008,-2.734451157,0.771310576,-0.69746332,-0.694316506,-0.508520842,-0.630485773,0.378780425,-0.42480725,0.550841749,XArbitraryZVertical,0.282215818,0.381541892,-0.878785555,0.050159395,0.534290195,0.642275453,-0.54956001,0,0,0,-1,-1,338920.6893,unknown,2,2023-02-21T15:25:02.008-08:00,2023-02-14T17:43:35.488-08:00,39768,1.286241,1.652287,0,29528.65,73,92,2023-02-21T15:25:02.008-08:00,698714702.1,0,9.209999,99.17397,1,0.53,0
2023-02-21T15:25:03.572-08:00,1677021903,34.06385075,-118.4510743,121.6315,0.9773877,1.598743,304.0986245,75.93976334,8.867435694,15.02629088,-9999,338922.2508,1.002120972,0.174468994,0.049942017,338922.2308,-2.722744646,0.766666112,-0.723526292,-0.951145709,-0.270641208,-0.179192841,0.474170208,-0.424238741,0.505521894,XArbitraryZVertical,0.273923084,0.393788766,-0.875962848,0.050848225,0.51993978,0.662031651,-0.539793074,0,0,0,-1,-1,338920.6893,unknown,2,2023-02-21T15:25:02.008-08:00,2023-02-14T17:43:35.488-08:00,39768,1.286241,1.652287,0,29528.65,73,92,2023-02-21T15:25:02.008-08:00,698714702.1,0,9.209999,99.17397,1,0.53,0
2023-02-21T15:25:03.607-08:00,1677021903,34.06385075,-118.4510743,121.6315,0.9773877,1.598743,304.0986245,75.93976334,8.867435694,15.02629088,-9999,338922.2859,1.259857178,0.215759277,-0.068603516,338922.2608,-2.692385945,0.788634752,-0.743128075,-0.923610866,0.435001552,0.414746881,0.479756296,-0.502125621,0.568936169,XArbitraryZVertical,0.274312857,0.406516128,-0.869714967,0.055614834,0.522364676,0.676594615,-0.518994212,0,0,0,-1,-1,338920.6893,unknown,2,2023-02-21T15:25:02.008-08:00,2023-02-14T17:43:35.488-08:00,39768,1.286241,1.652287,0,29528.65,73,92,2023-02-21T15:25:02.008-08:00,698714702.1,0,9.209999,99.17397,1,0.53,0
2023-02-21T15:25:03.642-08:00,1677021903,34.06385075,-118.4510743,121.6315,0.9773877,1.598743,304.0986245,75.93976334,8.867435694,15.02629088,-9999,338922.3209,1.00617981,0.387954712,-0.348007202,338922.2909,-2.645800771,0.842717002,-0.738740655,-0.570906878,0.96229744,1.410706162,0.68560636,-0.463304996,0.455653101,XArbitraryZVertical,0.288920303,0.412965533,-0.861204841,0.065655547,0.551866055,0.673357368,-0.491969049,0,0,0,-1,-1,338920.6893,unknown,2,2023-02-21T15:25:02.008-08:00,2023-02-14T17:43:35.488-08:00,39768,1.286241,1.652287,0,29528.65,73,92,2023-02-21T15:25:02.008-08:00,698714702.1,0,9.209999,99.17397,1,0.53,0
2023-02-21T15:25:03.677-08:00,1677021903,34.06385075,-118.4510743,121.6315,0.9773877,1.598743,304.0986245,75.93976334,8.867435694,15.02629088,-9999,338922.3559,0.977111816,0.45324707,-0.453781128,338922.3509,-2.527217744,0.994689256,-0.653475989,0.211284354,1.640534878,2.359633207,0.244962275,-0.174875021,0.00554204,XArbitraryZVertical,0.345407666,0.405498672,-0.839693707,0.105729332,0.665819466,0.607949913,-0.432528734,0,0,0,-1,-1,338920.6893,unknown,2,2023-02-21T15:25:02.008-08:00,2023-02-14T17:43:35.488-08:00,39768,1.286241,1.652287,0,29528.65,73,92,2023-02-21T15:25:02.008-08:00,698714702.1,0,9.209999,99.17397,1,0.53,0
