loggingTime(txt),locationTimestamp_since1970(s),locationLatitude(WGS84),locationLongitude(WGS84),locationAltitude(m),locationSpeed(m/s),locationSpeedAccuracy(m/s),locationCourse(°),locationCourseAccuracy(°),locationVerticalAccuracy(m),locationHorizontalAccuracy(m),locationFloor(Z),accelerometerTimestamp_sinceReboot(s),accelerometerAccelerationX(G),accelerometerAccelerationY(G),accelerometerAccelerationZ(G),motionTimestamp_sinceReboot(s),motionYaw(rad),motionRoll(rad),motionPitch(rad),motionRotationRateX(rad/s),motionRotationRateY(rad/s),motionRotationRateZ(rad/s),motionUserAccelerationX(G),motionUserAccelerationY(G),motionUserAccelerationZ(G),motionAttitudeReferenceFrame(txt),motionQuaternionX(R),motionQuaternionY(R),motionQuaternionZ(R),motionQuaternionW(R),motionGravityX(G),motionGravityY(G),motionGravityZ(G),motionMagneticFieldX(µT),motionMagneticFieldY(µT),motionMagneticFieldZ(µT),motionHeading(°),motionMagneticFieldCalibrationAccuracy(Z),activityTimestamp_sinceReboot(s),activity(txt),activityActivityConfidence(Z),activityActivityStartDate(txt),pedometerStartDate(txt),pedometerNumberofSteps(N),pedometerAverageActivePace(s/m),pedometerCurrentPace(s/m),pedometerCurrentCadence(steps/s),pedometerDistance(m),pedometerFloorAscended(N),pedometerFloorDescended(N),pedometerEndDate(txt),altimeterTimestamp_sinceReboot(s),altimeterReset(bool),altimeterRelativeAltitude(m),altimeterPressure(kPa),batteryState(N),batteryLevel(R),label
2023-02-21T15:37:52.006-08:00,1677022671,34.06472548,-118.4501946,111.9406,1.147627,1.157135,336.1349182,37.18221508,10.06580723,14.2513283,-9999,339678.8644,1.475769043,0.325027466,-0.300292969,339678.8344,1.112213756,1.248937734,-0.460852822,1.685009241,1.816664934,3.514899492,0.547994614,-0.038538456,-0.027706563,XArbitraryZVertical,-0.457847424,0.385631197,0.303526684,0.741306819,0.849679887,0.444712132,-0.283328623,0,0,0,-1,-1,339659.5887,walking,2,2023-02-21T15:37:32.729-08:00,2023-02-14T17:43:35.488-08:00,40963,1.272834,0.7073622,1.941418,30401.45,78,100,2023-02-21T15:37:50.663-08:00,698715470.7,0,0.4400024,99.2793,1,0.51,0
2023-02-21T15:37:52.041-08:00,1677022671,34.06472548,-118.4501946,111.9406,1.147627,1.157135,336.1349182,37.18221508,10.06580723,14.2513283,-9999,339678.8994,1.194274902,0.171417236,-0.385757446,339678.8944,1.120360955,1.336201872,-0.249471584,-0.700328469,1.114174008,3.172237873,0.36159271,-0.031010658,-0.121930629,XArbitraryZVertical,-0.409342068,0.468841928,0.348567076,0.700804658,0.942499578,0.246891931,-0.225252628,0,0,0,-1,-1,339659.5887,walking,2,2023-02-21T15:37:32.729-08:00,2023-02-14T17:43:35.488-08:00,40963,1.272834,0.7073622,1.941418,30401.45,78,100,2023-02-21T15:37:50.663-08:00,698715470.7,0,0.4400024,99.2793,1,0.51,0
2023-02-21T15:37:52.076-08:00,1677022671,34.06472548,-118.4501946,111.9406,1.147627,1.157135,336.1349182,37.18221508,10.06580723,14.2513283,-9999,339678.9344,0.999267578,0.331451416,-0.474090576,339678.9244,1.186892803,1.380121452,-0.170965602,-2.311006308,0.861621201,2.79601717,0.151884079,0.025483668,-0.251382411,XArbitraryZVertical,-0.40927806,0.488991011,0.384643173,0.667404527,0.967561662,0.170133948,-0.186758518,0,0,0,-1,-1,339659.5887,walking,2,2023-02-21T15:37:32.729-08:00,2023-02-14T17:43:35.488-08:00,40963,1.272834,0.7073622,1.941418,30401.45,78,100,2023-02-21T15:37:50.663-08:00,698715470.7,0,0.4400024,99.2793,1,0.51,0
2023-02-21T15:37:52.111-08:00,1677022671,34.06472548,-118.4501946,111.9406,1.147627,1.157135,336.1349182,37.18221508,10.06580723,14.2513283,-9999,339678.9695,0.798477173,0.559036255,-0.380813599,339678.9545,1.277355352,1.41556014,-0.108522202,-2.610045433,0.658921003,2.277514935,-0.050552964,0.302853942,-0.31757915,XArbitraryZVertical,-0.420090584,0.496660812,0.423970274,0.630159514,0.982162893,0.108309314,-0.153703883,0,0,0,-1,-1,339659.5887,walking,2,2023-02-21T15:37:32.729-08:00,2023-02-14T17:43:35.488-08:00,40963,1.272834,0.7073622,1.941418,30401.45,78,100,2023-02-21T15:37:50.663-08:00,698715470.7,0,0.4400024,99.2793,1,0.51,0
2023-02-21T15:37:52.146-08:00,1677022671,34.06472548,-118.4501946,111.9406,1.147627,1.157135,336.1349182,37.18221508,10.06580723,14.2513283,-9999,339679.0045,0.660064697,0.656906128,-0.329162598,339678.9845,1.351564165,1.439227882,-0.057673468,-1.626697659,0.505645037,1.759940147,-0.218774021,0.523977757,-0.230479181,XArbitraryZVertical,-0.429015449,0.500460003,0.455397009,0.598413739,0.98970896,0.057641502,-0.130971059,0,0,0,-1,-1,339659.5887,walking,2,2023-02-21T15:37:32.729-08:00,2023-02-14T17:43:35.488-08:00,40963,1.272834,0.7073622,1.941418,30401.45,78,100,2023-02-21T15:37:50.663-08:00,698715470.7,0,0.4400024,99.2793,1,0.51,0
2023-02-21T15:37:52.181-08:00,1677022671,34.06472548,-118.4501946,111.9406,1.147627,1.157135,336.1349182,37.18221508,10.06580723,14.2513283,-9999,339679.0395,0.721679688,0.588882446,-0.315063477,339679.0145,1.384492517,1.4564141,-0.015017213,-0.258177608,0.539622366,1.321048141,-0.333288789,0.641889453,-0.215042531,XArbitraryZVertical,-0.429090268,0.508745015,0.472523032,0.577738717,0.993353426,0.015016648,-0.114120103,0,0,0,-1,-1,339659.5887,walking,2,2023-02-21T15:37:32.729-08:00,2023-02-14T17:43:35.488-08:00,40963,1.272834,0.7073622,1.941418,30401.45,78,100,2023-02-21T15:37:50.663-08:00,698715470.7,0,0.4400024,99.2793,1,0.51,0
2023-02-21T15:37:52.216-08:00,1677022671,34.06472548,-118.4501946,111.9406,1.147627,1.157135,336.1349182,37.18221508,10.06580723,14.2513283,-9999,339679.0746,0.832229614,0.549179077,-0.3412323,339679.0445,1.383011427,1.472959248,0.019410909,0.476992667,0.539977491,0.987301171,-0.289357066,0.621643603,-0.219628692,XArbitraryZVertical,-0.422772856,0.521949982,0.477429689,0.566473389,0.995030165,-0.01940969,-0.097662657,0,0,0,-1,-1,339659.5887,walking,2,2023-02-21T15:37:32.729-08:00,2023-02-14T17:43:35.488-08:00,40963,1.272834,0.7073622,1.941418,30401.45,78,100,2023-02-21T15:37:50.663-08:00,698715470.7,0,0.4400024,99.2793,1,0.51,0
2023-02-21T15:37:52.251-08:00,1677022671,34.06472548,-118.4501946,111.9406,1.147627,1.157135,336.1349182,37.18221508,10.06580723,14.2513283,-9999,339679.1096,0.903305054,0.582595825,-0.388504028,339679.1046,1.348656327,1.503890858,0.074975605,0.670420766,0.361863881,0.798554659,-0.09945178,0.645706117,-0.307218432,XArbitraryZVertical,-0.404802971,0.55027328,0.475694503,0.554119658,0.994959593,-0.074905381,-0.066667743,0,0,0,-1,-1,339659.5887,walking,2,2023-02-21T15:37:32.729-08:00,2023-02-14T17:43:35.488-08:00,40963,1.272834,0.7073622,1.941418,30401.45,78,100,2023-02-21T15:37:50.663-08:00,698715470.7,0,0.4400024,99.2793,1,0.51,0
2023-02-21T15:37:52.287-08:00,1677022671,34.06472548,-118.4501946,111.9406,1.147627,1.157135,336.1349182,37.18221508,10.06580723,14.2513283,-9999,339679.1446,0.94493103,0.5753479,-0.36807251,339679.1346,1.331929084,1.514094646,0.097494011,0.507561326,0.237123951,0.593957067,-0.090560317,0.677448273,-0.31737721,XArbitraryZVertical,-0.395949497,0.561269015,0.474852292,0.550196583,0.993651628,-0.097339638,-0.056402177,0,0,0,-1,-1,339659.5887,walking,2,2023-02-21T15:37:32.729-08:00,2023-02-14T17:43:35.488-08:00,40963,1.272834,0.7073622,1.941418,30401.45,78,100,2023-02-21T15:37:50.663-08:00,698715470.7,0,0.4400024,99.2793,1,0.51,0
2023-02-21T15:37:52.321-08:00,1677022672,34.06473641,-118.4502004,112.2699,1.129901,1.155756,336.1349182,41.72657208,10.06748777,14.25014116,-9999,339679.1796,1.114746094,0.613677979,-0.400741577,339679.1646,1.318791607,1.521208372,0.111187842,0.439113259,0.126565218,0.266288787,-0.000751615,0.689099133,-0.323571801,XArbitraryZVertical,-0.389862044,0.568662298,0.473396779,0.548202783,0.992603362,-0.110958889,-0.049261555,0,0,0,-1,-1,339659.5887,walking,2,2023-02-21T15:37:32.729-08:00,2023-02-14T17:43:35.488-08:00,40963,1.272834,0.7073622,1.941418,30401.45,78,100,2023-02-21T15:37:50.663-08:00,698715470.7,0,0.4400024,99.2793,1,0.51,0
2023-02-21T15:37:52.356-08:00,1677022672,34.06473641,-118.4502004,112.2699,1.129901,1.155756,336.1349182,41.72657208,10.06748777,14.25014116,-9999,339679.2147,1.356582642,0.626419067,-0.343597412,339679.1946,1.304165129,1.524534217,0.113479808,0.526789248,-0.005858677,-0.176930815,0.145327568,0.734177589,-0.358043671,XArbitraryZVertical,-0.385788219,0.572881639,0.469332745,0.550182455,0.992504954,-0.113236405,-0.045948155,0,0,0,-1,-1,339659.5887,walking,2,2023-02-21T15:37:32.729-08:00,2023-02-14T17:43:35.488-08:00,40963,1.272834,0.7073622,1.941418,30401.45,78,100,2023-02-21T15:37:50.663-08:00,698715470.7,0,0.4400024,99.2793,1,0.51,0
2023-02-21T15:37:52.391-08:00,1677022672,34.06473641,-118.4502004,112.2699,1.129901,1.155756,336.1349182,41.72657208,10.06748777,14.25014116,-9999,339679.2497,1.613937378,0.767410278,-0.521514893,339679.2247,1.286435917,1.526595952,0.101548225,0.645863116,-0.063287683,-0.65722549,0.362705827,0.727792859,-0.299639106,XArbitraryZVertical,-0.384750485,0.574445722,0.460888158,0.55638224,0.993876696,-0.101373784,-0.043958351,0,0,0,-1,-1,339659.5887,walking,2,2023-02-21T15:37:32.729-08:00,2023-02-14T17:43:35.488-08:00,40963,1.272834,0.7073622,1.941418,30401.45,78,100,2023-02-21T15:37:50.663-08:00,698715470.7,0,0.4400024,99.2793,1,0.51,0
2023-02-21T15:37:52.427-08:00,1677022672,34.06473641,-118.4502004,112.2699,1.129901,1.155756,336.1349182,41.72657208,10.06748777,14.25014116,-9999,339679.2847,1.414367676,0.593719482,-0.415130615,339679.2547,1.257961718,1.518685334,0.076088552,1.118169665,-0.581833661,-1.1693151,0.637410343,0.822322547,-0.42970705,XArbitraryZVertical,-0.382426338,0.572522267,0.447567738,0.570658706,0.99575299,-0.076015152,-0.051936701,0,0,0,-1,-1,339659.5887,walking,2,2023-02-21T15:37:32.729-08:00,2023-02-14T17:43:35.488-08:00,40963,1.272834,0.7073622,1.941418,30401.45,78,100,2023-02-21T15:37:50.663-08:00,698715470.7,0,0.4400024,99.2793,1,0.51,0
2023-02-21T15:37:52.461-08:00,1677022672,34.06473641,-118.4502004,112.2699,1.129901,1.155756,336.1349182,41.72657208,10.06748777,14.25014116,-9999,339679.3198,1.239242554,0.440093994,-0.220687866,339679.3147,1.182933122,1.46900401,-0.038984671,1.107482672,-0.982718468,-2.806013823,0.248150229,0.430065095,-0.189552531,XArbitraryZVertical,-0.385636605,0.54819222,0.40289267,0.623255217,0.994067669,0.038974795,-0.101539396,0,0,0,-1,-1,339659.5887,walking,2,2023-02-21T15:37:32.729-08:00,2023-02-14T17:43:35.488-08:00,40963,1.272834,0.7073622,1.941418,30401.45,78,100,2023-02-21T15:37:50.663-08:00,698715470.7,0,0.4400024,99.2793,1,0.51,0
2023-02-21T15:37:52.497-08:00,1677022672,34.06473641,-118.4502004,112.2699,1.129901,1.155756,336.1349182,41.72657208,10.06748777,14.25014116,-9999,339679.3548,1.487701416,0.35319519,-0.199676514,339679.3448,1.13427767,1.433958174,-0.126508221,1.401699662,-1.132079482,-3.245955944,0.39699477,0.273273528,-0.052804336,XArbitraryZVertical,-0.392496605,0.527527944,0.369110022,0.656824466,0.982735395,0.126171038,-0.135321364,0,0,0,-1,-1,339659.5887,walking,2,2023-02-21T15:37:32.729-08:00,2023-02-14T17:43:35.488-08:00,40963,1.272834,0.7073622,1.941418,30401.45,78,100,2023-02-21T15:37:50.663-08:00,698715470.7,0,0.4400024,99.2793,1,0.51,0
2023-02-21T15:37:52.531-08:00,1677022672,34.06473641,-118.4502004,112.2699,1.129901,1.155756,336.1349182,41.72657208,10.06748777,14.25014116,-9999,339679.3898,1.468521118,0.358810425,-0.24822998,339679.3748,1.072239044,1.385119335,-0.217057874,1.63674736,-1.386625171,-3.275838852,0.546307623,0.143834367,-0.037783369,XArbitraryZVertical,-0.395899761,0.503113665,0.331351572,0.693069978,0.959749997,0.215357468,-0.180280045,0,0,0,-1,-1,339659.5887,walking,2,2023-02-21T15:37:32.729-08:00,2023-02-14T17:43:35.488-08:00,40963,1.272834,0.7073622,1.941418,30401.45,78,100,2023-02-21T15:37:50.663-08:00,698715470.7,0,0.4400024,99.2793,1,0.51,0
2023-02-21T15:37:52.567-08:00,1677022672,34.06473641,-118.4502004,112.2699,1.129901,1.155756,336.1349182,41.72657208,10.06748777,14.25014116,-9999,339679.4248,1.23538208,0.333053589,-0.181121826,339679.4048,1.001788764,1.321574675,-0.300412584,1.537199974,-1.616459966,-3.098713636,0.519334972,0.063124895,-0.010215744,XArbitraryZVertical,-0.395035359,0.475547451,0.294302721,0.728826096,0.925702751,0.295914352,-0.235603377,0,0,0,-1,-1,339659.5887,walking,2,2023-02-21T15:37:32.729-08:00,2023-02-14T17:43:35.488-08:00,40963,1.272834,0.7073622,1.941418,30401.45,78,100,2023-02-21T15:37:50.663-08:00,698715470.7,0,0.4400024,99.2793,1,0.51,0
2023-02-21T15:37:52.602-08:00,1677022672,34.06473641,-118.4502004,112.2699,1.129901,1.155756,336.1349182,41.72657208,10.06748777,14.25014116,-9999,339679.4599,1.022842407,0.267913818,-0.092163086,339679.4348,0.933084754,1.248476011,-0.375756738,1.173412442,-1.7150352,-2.944506884,0.353055954,-0.03392303,0.113545448,XArbitraryZVertical,-0.393627439,0.444661415,0.261050411,0.76104281,0.882325947,0.366976589,-0.294667333,0,0,0,-1,-1,339659.5887,walking,2,2023-02-21T15:37:32.729-08:00,2023-02-14T17:43:35.488-08:00,40963,1.272834,0.7073622,1.941418,30401.45,78,100,2023-02-21T15:37:50.663-08:00,698715470.7,0,0.4400024,99.2793,1,0.51,0
2023-02-21T15:37:52.637-08:00,1677022672,34.06473641,-118.4502004,112.2699,1.129901,1.155756,336.1349182,41.72657208,10.06748777,14.25014116,-9999,339679.4949,0.883483887,0.21697998,-0.020584106,339679.4649,0.869138806,1.171240421,-0.447245024,0.81111455,-1.714515686,-2.897256136,0.218159199,-0.153354228,0.249337137,XArbitraryZVertical,-0.394543275,0.411049952,0.230949393,0.788692509,0.83062309,0.432483166,-0.350747079,0,0,0,-1,-1,339659.5887,walking,2,2023-02-21T15:37:32.729-08:00,2023-02-14T17:43:35.488-08:00,40963,1.272834,0.7073622,1.941418,30401.45,78,100,2023-02-21T15:37:50.663-08:00,698715470.7,0,0.4400024,99.2793,1,0.51,0
2023-02-21T15:37:52.672-08:00,1677022672,34.06473641,-118.4502004,112.2699,1.129901,1.155756,336.1349182,41.72657208,10.06748777,14.25014116,-9999,339679.5299,0.818878174,0.192367554,0.027023315,339679.5249,0.745844703,1.010290669,-0.591123944,0.198939323,-1.58625257,-2.98097086,0.133953869,-0.352689564,0.450547397,XArbitraryZVertical,-0.406048833,0.338261178,0.173738356,0.830974541,0.703265369,0.557294607,-0.441407442,0,0,0,-1,-1,339659.5887,walking,2,2023-02-21T15:37:32.729-08:00,2023-02-14T17:43:35.488-08:00,40963,1.272834,0.7073622,1.941418,30401.45,78,100,2023-02-21T15:37:50.663-08:00,698715470.7,0,0.4400024,99.2793,1,0.51,0
2023-02-21T15:37:52.707-08:00,1677022672,34.06473641,-118.4502004,112.2699,1.129901,1.155756,336.1349182,41.72657208,10.06748777,14.25014116,-9999,339679.565,0.798828125,0.114028931,0.065979004,339679.5549,0.680901049,0.925951677,-0.662851526,-0.020417318,-1.489952445,-2.892529249,0.177767396,-0.433131397,0.515066147,XArbitraryZVertical,-0.415440299,0.300855077,0.1455183,0.846002277,0.629956484,0.615367055,-0.473791152,0,0,0,-1,-1,339659.5887,walking,2,2023-02-21T15:37:32.729-08:00,2023-02-14T17:43:35.488-08:00,40963,1.272834,0.7073622,1.941418,30401.45,78,100,2023-02-21T15:37:50.663-08:00,698715470.7,0,0.4400024,99.2793,1,0.51,0
2023-02-21T15:37:52.742-08:00,1677022672,34.06473641,-118.4502004,112.2699,1.129901,1.155756,336.1349182,41.72657208,10.06748777,14.25014116,-9999,339679.6,0.669418335,-0.099975586,0.154388428,339679.585,0.623739137,0.844827169,-0.730720054,-0.6982674,-1.478624344,-2.437964201,0.227285981,-0.666933119,0.569873452,XArbitraryZVertical,-0.42765056,0.264440041,0.121987209,0.855748479,0.556924105,0.667406023,-0.494372934,0,0,0,-1,-1,339659.5887,walking,2,2023-02-21T15:37:32.729-08:00,2023-02-14T17:43:35.488-08:00,40963,1.272834,0.7073622,1.941418,30401.45,78,100,2023-02-21T15:37:50.663-08:00,698715470.7,0,0.4400024,99.2793,1,0.51,0
2023-02-21T15:37:52.777-08:00,1677022672,34.06473641,-118.4502004,112.2699,1.129901,1.155756,336.1349182,41.72657208,10.06748777,14.25014116,-9999,339679.635,0.575454712,0.009124756,0.117263794,339679.615,0.597619534,0.786440616,-0.802117397,-1.572672009,-1.167638302,-1.825161099,0.162274897,-0.824954689,0.650542974,XArbitraryZVertical,-0.448466036,0.23097441,0.10738205,0.856736783,0.492082953,0.718829691,-0.491058081,0,0,0,-1,-1,339659.5887,walking,2,2023-02-21T15:37:32.729-08:00,2023-02-14T17:43:35.488-08:00,40963,1.272834,0.7073622,1.941418,30401.45,78,100,2023-02-21T15:37:50.663-08:00,698715470.7,0,0.4400024,99.2793,1,0.51,0
2023-02-21T15:37:52.812-08:00,1677022672,34.06473641,-118.4502004,112.2699,1.129901,1.155756,336.1349182,41.72657208,10.06748777,14.25014116,-9999,339679.67,0.608398438,0.236251831,0.024993896,339679.645,0.607164057,0.765440256,-0.873531198,-1.986869693,-0.689494252,-1.175802827,0.130556583,-0.757476568,0.580284476,XArbitraryZVertical,-0.475620804,0.205607685,0.100532169,0.849354721,0.444898099,0.766601205,-0.463020653,0,0,0,-1,-1,339659.5887,walking,2,2023-02-21T15:37:32.729-08:00,2023-02-14T17:43:35.488-08:00,40963,1.272834,0.7073622,1.941418,30401.45,78,100,2023-02-21T15:37:50.663-08:00,698715470.7,0,0.4400024,99.2793,1,0.51,0
2023-02-21T15:37:52.847-08:00,1677022672,34.06473641,-118.4502004,112.2699,1.129901,1.155756,336.1349182,41.72657208,10.06748777,14.25014116,-9999,339679.7051,0.812774658,0.256195068,0.012039185,339679.675,0.638309649,0.777064279,-0.928805717,-1.397265315,-0.187613368,-0.44123885,0.173029661,-0.582979441,0.459668279,XArbitraryZVertical,-0.4998484,0.19154653,0.098518356,0.83890144,0.419865817,0.800905406,-0.426923007,0,0,0,-1,-1,339659.5887,walking,2,2023-02-21T15:37:32.729-08:00,2023-02-14T17:43:35.488-08:00,40963,1.272834,0.7073622,1.941418,30401.45,78,100,2023-02-21T15:37:50.663-08:00,698715470.7,0,0.4400024,99.2793,1,0.51,0
2023-02-21T15:37:52.882-08:00,1677022672,34.06473641,-118.4502004,112.2699,1.129901,1.155756,336.1349182,41.72657208,10.06748777,14.25014116,-9999,339679.7401,1.021148682,0.206634521,0.035079956,339679.7351,0.705281284,0.845349661,-0.925133411,0.301528513,0.636894286,1.561577678,0.485347271,-0.571970761,0.422162235,XArbitraryZVertical,-0.508716642,0.203944121,0.110094072,0.829152278,0.450214833,0.798701048,-0.399228334,0,0,0,-1,-1,339659.5887,walking,2,2023-02-21T15:37:32.729-08:00,2023-02-14T17:43:35.488-08:00,40963,1.272834,0.7073622,1.941418,30401.45,78,100,2023-02-21T15:37:50.663-08:00,698715470.7,0,0.4400024,99.2793,1,0.51,0
2023-02-21T15:37:52.917-08:00,1677022672,34.06473641,-118.4502004,112.2699,1.129901,1.155756,336.1349182,41.72657208,10.06748777,14.25014116,-9999,339679.7751,1.25201416,0.216888428,0.040512085,339679.7651,0.756464991,0.91147607,-0.867908282,0.365394026,1.078352451,2.728466749,0.620759487,-0.551125526,0.441396236,XArbitraryZVertical,-0.498326376,0.231684613,0.128877923,0.825459551,0.510939062,0.762978494,-0.39598614,0,0,0,-1,-1,339659.5887,walking,2,2023-02-21T15:37:32.729-08:00,2023-02-14T17:43:35.488-08:00,40963,1.272834,0.7073622,1.941418,30401.45,78,100,2023-02-21T15:37:50.663-08:00,698715470.7,0,0.4400024,99.2793,1,0.51,0
2023-02-21T15:37:52.952-08:00,1677022672,34.06473641,-118.4502004,112.2699,1.129901,1.155756,336.1349182,41.72657208,10.06748777,14.25014116,-9999,339679.8101,1.388366699,0.331176758,-0.142471313,339679.7951,0.834983536,1.007899132,-0.785262553,-0.130071536,1.498158932,3.757772446,0.695336342,-0.477533996,0.392847776,XArbitraryZVertical,-0.487173058,0.27196893,0.159150216,0.814473111,0.598090172,0.707010865,-0.377390623,0,0,0,-1,-1,339659.5887,walking,2,2023-02-21T15:37:32.729-08:00,2023-02-14T17:43:35.488-08:00,40963,1.272834,0.7073622,1.941418,30401.45,78,100,2023-02-21T15:37:50.663-08:00,698715470.7,0,0.4400024,99.2793,1,0.51,0
2023-02-21T15:37:52.987-08:00,1677022672,34.06473641,-118.4502004,112.2699,1.129901,1.155756,336.1349182,41.72657208,10.06748777,14.25014116,-9999,339679.8452,1.332778931,0.575408936,-0.530685425,339679.8252,0.924264718,1.115666716,-0.681393968,-0.216040343,1.612298131,4.319057941,0.700135112,-0.26363492,0.153796673,XArbitraryZVertical,-0.476201131,0.320192281,0.19820047,0.794623108,0.697630942,0.629876316,-0.341418773,0,0,0,-1,-1,339659.5887,walking,2,2023-02-21T15:37:32.729-08:00,2023-02-14T17:43:35.488-08:00,40963,1.272834,0.7073622,1.941418,30401.45,78,100,2023-02-21T15:37:50.663-08:00,698715470.7,0,0.4400024,99.2793,1,0.51,0
2023-02-21T15:37:50.920-08:00,1677022670,34.06471053,-118.4501866,112.7617,1.179006,1.171565,336.1349182,42.03970144,10.06506556,14.25185211,-9999,339677.7785,1.603256226,0.247756958,-0.268585205,339677.7535,1.182416221,1.166079618,-0.597632591,0.9099105,1.36647737,4.493338585,0.462265968,-0.124454618,-0.124168336,XArbitraryZVertical,-0.497307989,0.299884371,0.310095246,0.752725111,0.759886682,0.56268698,-0.325508267,0,0,0,-1,-1,339659.5887,walking,2,2023-02-21T15:37:32.729-08:00,2023-02-14T17:43:35.488-08:00,40963,1.272834,0.7073622,1.941418,30401.45,78,100,2023-02-21T15:37:50.663-08:00,698715470.7,0,0.4400024,99.2793,1,0.51,0
2023-02-21T15:37:50.955-08:00,1677022670,34.06471053,-118.4501866,112.7617,1.179006,1.171565,336.1349182,42.03970144,10.06506556,14.25185211,-9999,339677.8135,1.57913208,0.173233032,-0.235702515,339677.7835,1.214200471,1.220417928,-0.465339942,0.487661183,1.069470406,4.332057476,0.71900779,-0.179012328,0.027213722,XArbitraryZVertical,-0.473300126,0.35015655,0.346414795,0.730324591,0.839372218,0.448726624,-0.306754768,0,0,0,-1,-1,339659.5887,walking,2,2023-02-21T15:37:32.729-08:00,2023-02-14T17:43:35.488-08:00,40963,1.272834,0.7073622,1.941418,30401.45,78,100,2023-02-21T15:37:50.663-08:00,698715470.7,0,0.4400024,99.2793,1,0.51,0
2023-02-21T15:37:50.990-08:00,1677022670,34.06471053,-118.4501866,112.7617,1.179006,1.171565,336.1349182,42.03970144,10.06506556,14.25185211,-9999,339677.8486,1.413742065,0.274124146,-0.30859375,339677.8436,1.354804452,1.303521629,-0.252642416,-3.038794041,0.255249768,3.555767536,0.572409928,-0.063134789,-0.014467478,XArbitraryZVertical,-0.45520744,0.406111068,0.434775476,0.662442631,0.933876634,0.249963358,-0.25571999,0,0,0,-1,-1,339659.5887,walking,2,2023-02-21T15:37:32.729-08:00,2023-02-14T17:43:35.488-08:00,40963,1.272834,0.7073622,1.941418,30401.45,78,100,2023-02-21T15:37:50.663-08:00,698715470.7,0,0.4400024,99.2793,1,0.51,0
2023-02-21T15:37:51.026-08:00,1677022670,34.06471053,-118.4501866,112.7617,1.179006,1.171565,336.1349182,42.03970144,10.06506556,14.25185211,-9999,339677.8836,1.135772705,0.613861084,-0.297973633,339677.8736,1.493407461,1.337419463,-0.186843948,-4.276970863,0.022495,2.868629932,0.339497685,0.244661182,-0.110041261,XArbitraryZVertical,-0.472984245,0.403319183,0.488162755,0.612630881,0.955958128,0.18575871,-0.227239087,0,0,0,-1,-1,339659.5887,walking,2,2023-02-21T15:37:32.729-08:00,2023-02-14T17:43:35.488-08:00,40963,1.272834,0.7073622,1.941418,30401.45,78,100,2023-02-21T15:37:50.663-08:00,698715470.7,0,0.4400024,99.2793,1,0.51,0
2023-02-21T15:37:51.060-08:00,1677022670,34.06471053,-118.4501866,112.7617,1.179006,1.171565,336.1349182,42.03970144,10.06506556,14.25185211,-9999,339677.9186,0.858093262,0.703582764,-0.245223999,339677.9036,1.628134016,1.357760501,-0.137868036,-3.348345757,-0.103188097,2.229208946,0.084355593,0.525013328,-0.064824402,XArbitraryZVertical,-0.492272438,0.39109706,0.534835585,0.564501383,0.968119323,0.137431696,-0.209421873,0,0,0,-1,-1,339659.5887,walking,2,2023-02-21T15:37:32.729-08:00,2023-02-14T17:43:35.488-08:00,40963,1.272834,0.7073622,1.941418,30401.45,78,100,2023-02-21T15:37:50.663-08:00,698715470.7,0,0.4400024,99.2793,1,0.51,0
2023-02-21T15:37:51.096-08:00,1677022670,34.06471053,-118.4501866,112.7617,1.179006,1.171565,336.1349182,42.03970144,10.06506556,14.25185211,-9999,339677.9536,0.76083374,0.669174194,-0.22013855,339677.9336,1.712243302,1.366134526,-0.093236716,-1.489404321,3.36E-05,1.753463984,-0.142143905,0.610862553,-0.039651155,XArbitraryZVertical,-0.499901763,0.385903592,0.565932823,0.529996838,0.974877,0.093101688,-0.202353284,0,0,0,-1,-1,339659.5887,walking,2,2023-02-21T15:37:32.729-08:00,2023-02-14T17:43:35.488-08:00,40963,1.272834,0.7073622,1.941418,30401.45,78,100,2023-02-21T15:37:50.663-08:00,698715470.7,0,0.4400024,99.2793,1,0.51,0
2023-02-21T15:37:51.130-08:00,1677022670,34.06471053,-118.4501866,112.7617,1.179006,1.171565,336.1349182,42.03970144,10.06506556,14.25185211,-9999,339677.9887,0.731582642,0.610687256,-0.207977295,339677.9637,1.744557489,1.369587286,-0.049639238,-0.197441265,0.060995184,1.481904864,-0.217785001,0.619555354,-0.020530701,XArbitraryZVertical,-0.496588498,0.391913118,0.582869987,0.509967151,0.978618681,0.049618855,-0.199607939,0,0,0,-1,-1,339659.5887,walking,2,2023-02-21T15:37:32.729-08:00,2023-02-14T17:43:35.488-08:00,40963,1.272834,0.7073622,1.941418,30401.45,78,100,2023-02-21T15:37:50.663-08:00,698715470.7,0,0.4400024,99.2793,1,0.51,0
2023-02-21T15:37:51.166-08:00,1677022670,34.06471053,-118.4501866,112.7617,1.179006,1.171565,336.1349182,42.03970144,10.06506556,14.25185211,-9999,339678.0237,0.779815674,0.588302612,-0.22668457,339677.9937,1.751010592,1.373315424,-0.007988373,0.245274171,0.167114705,1.330693245,-0.2515288,0.609809577,-0.008487925,XArbitraryZVertical,-0.488768964,0.403742647,0.592218051,0.49736756,0.980532587,0.007988288,-0.196193546,0,0,0,-1,-1,339659.5887,walking,2,2023-02-21T15:37:32.729-08:00,2023-02-14T17:43:35.488-08:00,40963,1.272834,0.7073622,1.941418,30401.45,78,100,2023-02-21T15:37:50.663-08:00,698715470.7,0,0.4400024,99.2793,1,0.51,0
2023-02-21T15:37:51.200-08:00,1677022671,34.06472548,-118.4501946,111.9406,1.147627,1.157135,336.1349182,37.18221508,10.06580723,14.2513283,-9999,339678.0587,0.775344849,0.639450073,-0.233978271,339678.0537,1.737005079,1.386271247,0.075075887,0.759048164,0.227608129,1.29951036,-0.209548295,0.685616374,-0.040029153,XArbitraryZVertical,-0.468760116,0.434491128,0.602289953,0.478255173,0.980254292,-0.075005382,-0.18296282,0,0,0,-1,-1,339659.5887,walking,2,2023-02-21T15:37:32.729-08:00,2023-02-14T17:43:35.488-08:00,40963,1.272834,0.7073622,1.941418,30401.45,78,100,2023-02-21T15:37:50.663-08:00,698715470.7,0,0.4400024,99.2793,1,0.51,0
2023-02-21T15:37:51.236-08:00,1677022671,34.06472548,-118.4501946,111.9406,1.147627,1.157135,336.1349182,37.18221508,10.06580723,14.2513283,-9999,339678.0938,0.941177368,0.708679199,-0.330718994,339678.0837,1.716659771,1.396015911,0.11693898,1.057127833,0.282740474,1.17894423,-0.159603596,0.783466458,-0.093271717,XArbitraryZVertical,-0.456262071,0.45329106,0.603325751,0.471540065,0.978039086,-0.116672643,-0.172704279,0,0,0,-1,-1,339659.5887,walking,2,2023-02-21T15:37:32.729-08:00,2023-02-14T17:43:35.488-08:00,40963,1.272834,0.7073622,1.941418,30401.45,78,100,2023-02-21T15:37:50.663-08:00,698715470.7,0,0.4400024,99.2793,1,0.51,0
2023-02-21T15:37:51.270-08:00,1677022671,34.06472548,-118.4501946,111.9406,1.147627,1.157135,336.1349182,37.18221508,10.06580723,14.2513283,-9999,339678.1288,1.142074585,0.800140381,-0.307479858,339678.1138,1.686874085,1.407564952,0.154097197,1.238319397,0.164696082,0.891035318,0.044058144,0.903838992,-0.19882375,XArbitraryZVertical,-0.442892016,0.472816824,0.600890254,0.46821118,0.975015223,-0.153488055,-0.160581827,0,0,0,-1,-1,339659.5887,walking,2,2023-02-21T15:37:32.729-08:00,2023-02-14T17:43:35.488-08:00,40963,1.272834,0.7073622,1.941418,30401.45,78,100,2023-02-21T15:37:50.663-08:00,698715470.7,0,0.4400024,99.2793,1,0.51,0
2023-02-21T15:37:51.306-08:00,1677022671,34.06472548,-118.4501946,111.9406,1.147627,1.157135,336.1349182,37.18221508,10.06580723,14.2513283,-9999,339678.1638,1.576309204,0.851837158,-0.316650391,339678.1438,1.657513015,1.417179372,0.17704381,0.870871246,0.213623479,0.270141155,0.201203823,0.975223184,-0.132978201,XArbitraryZVertical,-0.432431471,0.48753685,0.596347339,0.468701131,0.97277683,-0.176120371,-0.150621682,0,0,0,-1,-1,339659.5887,walking,2,2023-02-21T15:37:32.729-08:00,2023-02-14T17:43:35.488-08:00,40963,1.272834,0.7073622,1.941418,30401.45,78,100,2023-02-21T15:37:50.663-08:00,698715470.7,0,0.4400024,99.2793,1,0.51,0
2023-02-21T15:37:51.341-08:00,1677022671,34.06472548,-118.4501946,111.9406,1.147627,1.157135,336.1349182,37.18221508,10.06580723,14.2513283,-9999,339678.1988,1.337158203,0.750198364,-0.34703064,339678.1738,1.633690085,1.422641616,0.176906943,0.750580192,-0.249529853,-0.549864709,0.602700233,1.027822733,-0.171341002,XArbitraryZVertical,-0.428243636,0.493915634,0.58952783,0.47445934,0.973608851,-0.175985634,-0.145309463,0,0,0,-1,-1,339659.5887,walking,2,2023-02-21T15:37:32.729-08:00,2023-02-14T17:43:35.488-08:00,40963,1.272834,0.7073622,1.941418,30401.45,78,100,2023-02-21T15:37:50.663-08:00,698715470.7,0,0.4400024,99.2793,1,0.51,0
2023-02-21T15:37:51.376-08:00,1677022671,34.06472548,-118.4501946,111.9406,1.147627,1.157135,336.1349182,37.18221508,10.06580723,14.2513283,-9999,339678.2339,1.214782715,0.520401001,-0.242752075,339678.2038,1.606615477,1.416857618,0.147915255,0.687634587,-0.339562356,-1.669763327,0.398912549,0.939795911,-0.206298873,XArbitraryZVertical,-0.427998858,0.490905711,0.578383263,0.49122423,0.977384329,-0.147376478,-0.151657119,0,0,0,-1,-1,339659.5887,walking,2,2023-02-21T15:37:32.729-08:00,2023-02-14T17:43:35.488-08:00,40963,1.272834,0.7073622,1.941418,30401.45,78,100,2023-02-21T15:37:50.663-08:00,698715470.7,0,0.4400024,99.2793,1,0.51,0
2023-02-21T15:37:51.411-08:00,1677022671,34.06472548,-118.4501946,111.9406,1.147627,1.157135,336.1349182,37.18221508,10.06580723,14.2513283,-9999,339678.2689,1.363891602,0.501174927,-0.160263062,339678.2639,1.530010319,1.399403134,-0.008705805,1.260932088,-0.362503231,-3.583059549,0.274668455,0.502219558,-0.006956697,XArbitraryZVertical,-0.448386926,0.46224966,0.527790287,0.55381572,0.985310793,0.008705695,-0.170548826,0,0,0,-1,-1,339659.5887,walking,2,2023-02-21T15:37:32.729-08:00,2023-02-14T17:43:35.488-08:00,40963,1.272834,0.7073622,1.941418,30401.45,78,100,2023-02-21T15:37:50.663-08:00,698715470.7,0,0.4400024,99.2793,1,0.51,0
2023-02-21T15:37:51.446-08:00,1677022671,34.06472548,-118.4501946,111.9406,1.147627,1.157135,336.1349182,37.18221508,10.06580723,14.2513283,-9999,339678.3039,1.47479248,0.506027222,-0.186050415,339678.2939,1.462914588,1.381330934,-0.112176467,1.910224438,-0.549144864,-3.805553675,0.462498426,0.397519082,0.024598241,XArbitraryZVertical,-0.457009681,0.44448517,0.487487665,0.596599428,0.97593236,0.111941352,-0.187150165,0,0,0,-1,-1,339659.5887,walking,2,2023-02-21T15:37:32.729-08:00,2023-02-14T17:43:35.488-08:00,40963,1.272834,0.7073622,1.941418,30401.45,78,100,2023-02-21T15:37:50.663-08:00,698715470.7,0,0.4400024,99.2793,1,0.51,0
2023-02-21T15:37:51.481-08:00,1677022671,34.06472548,-118.4501946,111.9406,1.147627,1.157135,336.1349182,37.18221508,10.06580723,14.2513283,-9999,339678.339,1.382263184,0.443222046,-0.221969604,339678.3239,1.375985602,1.347001149,-0.211018745,2.256567001,-0.797596693,-3.744482756,0.51475203,0.288041383,0.013822794,XArbitraryZVertical,-0.45744828,0.426891845,0.442829154,0.642188953,0.953433335,0.209456161,-0.217008844,0,0,0,-1,-1,339659.5887,walking,2,2023-02-21T15:37:32.729-08:00,2023-02-14T17:43:35.488-08:00,40963,1.272834,0.7073622,1.941418,30401.45,78,100,2023-02-21T15:37:50.663-08:00,698715470.7,0,0.4400024,99.2793,1,0.51,0
2023-02-21T15:37:51.516-08:00,1677022671,34.06472548,-118.4501946,111.9406,1.147627,1.157135,336.1349182,37.18221508,10.06580723,14.2513283,-9999,339678.374,1.17616272,0.327789307,-0.163619995,339678.354,1.282165743,1.296726605,-0.301590085,2.051606178,-0.940969825,-3.55688262,0.439338923,0.127552092,0.040128201,XArbitraryZVertical,-0.45302705,0.406876684,0.398585249,0.685818857,0.919227183,0.297038913,-0.258435726,0,0,0,-1,-1,339659.5887,walking,2,2023-02-21T15:37:32.729-08:00,2023-02-14T17:43:35.488-08:00,40963,1.272834,0.7073622,1.941418,30401.45,78,100,2023-02-21T15:37:50.663-08:00,698715470.7,0,0.4400024,99.2793,1,0.51,0
2023-02-21T15:37:51.551-08:00,1677022671,34.06472548,-118.4501946,111.9406,1.147627,1.157135,336.1349182,37.18221508,10.06580723,14.2513283,-9999,339678.409,1.014419556,0.254989624,-0.063552856,339678.384,1.192970646,1.237763011,-0.384300725,1.639075279,-0.958840609,-3.371931314,0.300039113,-0.047121704,0.139446497,XArbitraryZVertical,-0.448569824,0.383734073,0.357475267,0.723702091,0.876123548,0.374910951,-0.303066552,0,0,0,-1,-1,339659.5887,walking,2,2023-02-21T15:37:32.729-08:00,2023-02-14T17:43:35.488-08:00,40963,1.272834,0.7073622,1.941418,30401.45,78,100,2023-02-21T15:37:50.663-08:00,698715470.7,0,0.4400024,99.2793,1,0.51,0
2023-02-21T15:37:51.586-08:00,1677022671,34.06472548,-118.4501946,111.9406,1.147627,1.157135,336.1349182,37.18221508,10.06580723,14.2513283,-9999,339678.444,0.911178589,0.245773315,-0.015914917,339678.414,1.109666761,1.175188433,-0.461338668,1.30185318,-0.95055306,-3.218519926,0.204039931,-0.184160948,0.272144616,XArbitraryZVertical,-0.446041027,0.358478104,0.319101947,0.755456681,0.826294482,0.445147216,-0.345081687,0,0,0,-1,-1,339659.5887,walking,2,2023-02-21T15:37:32.729-08:00,2023-02-14T17:43:35.488-08:00,40963,1.272834,0.7073622,1.941418,30401.45,78,100,2023-02-21T15:37:50.663-08:00,698715470.7,0,0.4400024,99.2793,1,0.51,0
2023-02-21T15:37:51.621-08:00,1677022671,34.06472548,-118.4501946,111.9406,1.147627,1.157135,336.1349182,37.18221508,10.06580723,14.2513283,-9999,339678.4791,0.87852478,0.224334717,0.017272949,339678.4741,0.93888595,1.028685929,-0.593079726,1.180423021,-1.051037073,-2.846116066,0.171673059,-0.316867352,0.432289064,XArbitraryZVertical,-0.439728739,0.304502641,0.248460867,0.807579045,0.710330665,0.558917463,-0.427833557,0,0,0,-1,-1,339659.5887,walking,2,2023-02-21T15:37:32.729-08:00,2023-02-14T17:43:35.488-08:00,40963,1.272834,0.7073622,1.941418,30401.45,78,100,2023-02-21T15:37:50.663-08:00,698715470.7,0,0.4400024,99.2793,1,0.51,0
2023-02-21T15:37:51.656-08:00,1677022671,34.06472548,-118.4501946,111.9406,1.147627,1.157135,336.1349182,37.18221508,10.06580723,14.2513283,-9999,339678.5141,0.824188232,0.171340942,0.016433716,339678.5041,0.851023426,0.944918866,-0.642937789,0.929970384,-1.128109217,-2.532775164,0.218508363,-0.403489172,0.490207106,XArbitraryZVertical,-0.434486204,0.277126948,0.217772429,0.828853091,0.648633301,0.599549234,-0.468844801,0,0,0,-1,-1,339659.5887,walking,2,2023-02-21T15:37:32.729-08:00,2023-02-14T17:43:35.488-08:00,40963,1.272834,0.7073622,1.941418,30401.45,78,100,2023-02-21T15:37:50.663-08:00,698715470.7,0,0.4400024,99.2793,1,0.51,0
2023-02-21T15:37:51.691-08:00,1677022671,34.06472548,-118.4501946,111.9406,1.147627,1.157135,336.1349182,37.18221508,10.06580723,14.2513283,-9999,339678.5491,0.752548218,0.12651062,0.045471191,339678.5341,0.773868718,0.863800009,-0.685551658,0.456456661,-1.079902887,-2.183889866,0.208977878,-0.471082389,0.524207413,XArbitraryZVertical,-0.431441836,0.249916523,0.192473021,0.845194467,0.588537931,0.633100152,-0.502799332,0,0,0,-1,-1,339659.5887,walking,2,2023-02-21T15:37:32.729-08:00,2023-02-14T17:43:35.488-08:00,40963,1.272834,0.7073622,1.941418,30401.45,78,100,2023-02-21T15:37:50.663-08:00,698715470.7,0,0.4400024,99.2793,1,0.51,0
2023-02-21T15:37:51.726-08:00,1677022671,34.06472548,-118.4501946,111.9406,1.147627,1.157135,336.1349182,37.18221508,10.06580723,14.2513283,-9999,339678.5842,0.770217896,0.114715576,0.069854736,339678.5641,0.717463728,0.796896145,-0.727312731,-0.209445193,-0.923471689,-1.769191146,0.2148633,-0.544091523,0.576091409,XArbitraryZVertical,-0.43427098,0.224434947,0.173202739,0.855007904,0.534221172,0.664864719,-0.522075355,0,0,0,-1,-1,339659.5887,walking,2,2023-02-21T15:37:32.729-08:00,2023-02-14T17:43:35.488-08:00,40963,1.272834,0.7073622,1.941418,30401.45,78,100,2023-02-21T15:37:50.663-08:00,698715470.7,0,0.4400024,99.2793,1,0.51,0
2023-02-21T15:37:51.761-08:00,1677022671,34.06472548,-118.4501946,111.9406,1.147627,1.157135,336.1349182,37.18221508,10.06580723,14.2513283,-9999,339678.6192,0.855194092,0.103164673,0.102554321,339678.5942,0.685993747,0.751392483,-0.769612781,-0.677714527,-0.680948079,-1.234114528,0.279947162,-0.581141651,0.594656944,XArbitraryZVertical,-0.443232652,0.202839021,0.160263833,0.858322048,0.490270734,0.695857227,-0.524802268,0,0,0,-1,-1,339659.5887,walking,2,2023-02-21T15:37:32.729-08:00,2023-02-14T17:43:35.488-08:00,40963,1.272834,0.7073622,1.941418,30401.45,78,100,2023-02-21T15:37:50.663-08:00,698715470.7,0,0.4400024,99.2793,1,0.51,0
2023-02-21T15:37:51.796-08:00,1677022671,34.06472548,-118.4501946,111.9406,1.147627,1.157135,336.1349182,37.18221508,10.06580723,14.2513283,-9999,339678.6542,0.934387207,0.175460815,0.092987061,339678.6242,0.683007232,0.733731781,-0.807400296,-1.046921849,-0.352489591,-0.545745373,0.37562874,-0.625354886,0.613571405,XArbitraryZVertical,-0.455979324,0.188005264,0.154722429,0.856036072,0.462979019,0.722492218,-0.513473749,0,0,0,-1,-1,339659.5887,walking,2,2023-02-21T15:37:32.729-08:00,2023-02-14T17:43:35.488-08:00,40963,1.272834,0.7073622,1.941418,30401.45,78,100,2023-02-21T15:37:50.663-08:00,698715470.7,0,0.4400024,99.2793,1,0.51,0
2023-02-21T15:37:51.831-08:00,1677022671,34.06472548,-118.4501946,111.9406,1.147627,1.157135,336.1349182,37.18221508,10.06580723,14.2513283,-9999,339678.6892,1.107940674,0.233886719,0.055496216,339678.6842,0.778283763,0.807992668,-0.845143791,-1.252998471,0.524574876,1.342218876,0.543077111,-0.539372146,0.522206306,XArbitraryZVertical,-0.484919267,0.188646688,0.169007676,0.837079566,0.479734719,0.748066545,-0.458531469,0,0,0,-1,-1,339659.5887,walking,2,2023-02-21T15:37:32.729-08:00,2023-02-14T17:43:35.488-08:00,40963,1.272834,0.7073622,1.941418,30401.45,78,100,2023-02-21T15:37:50.663-08:00,698715470.7,0,0.4400024,99.2793,1,0.51,0
2023-02-21T15:37:51.866-08:00,1677022671,34.06472548,-118.4501946,111.9406,1.147627,1.157135,336.1349182,37.18221508,10.06580723,14.2513283,-9999,339678.7243,1.201370239,0.288330078,0.017791748,339678.7143,0.876981265,0.903410986,-0.826179935,-1.238002419,0.964798272,2.501881838,0.621232271,-0.485332727,0.464092672,XArbitraryZVertical,-0.496746296,0.20861536,0.191207586,0.8204647,0.532286406,0.735347927,-0.419445485,0,0,0,-1,-1,339659.5887,walking,2,2023-02-21T15:37:32.729-08:00,2023-02-14T17:43:35.488-08:00,40963,1.272834,0.7073622,1.941418,30401.45,78,100,2023-02-21T15:37:50.663-08:00,698715470.7,0,0.4400024,99.2793,1,0.51,0
2023-02-21T15:37:51.901-08:00,1677022671,34.06472548,-118.4501946,111.9406,1.147627,1.157135,336.1349182,37.18221508,10.06580723,14.2513283,-9999,339678.7593,1.135620117,0.440322876,-0.17036438,339678.7443,0.991794751,1.020971052,-0.772297229,-1.015622258,1.309910655,3.402682543,0.60894388,-0.369810224,0.355362982,XArbitraryZVertical,-0.504391229,0.241743421,0.222735884,0.798460034,0.610736966,0.697782576,-0.374299228,0,0,0,-1,-1,339659.5887,walking,2,2023-02-21T15:37:32.729-08:00,2023-02-14T17:43:35.488-08:00,40963,1.272834,0.7073622,1.941418,30401.45,78,100,2023-02-21T15:37:50.663-08:00,698715470.7,0,0.4400024,99.2793,1,0.51,0
2023-02-21T15:37:51.936-08:00,1677022671,34.06472548,-118.4501946,111.9406,1.147627,1.157135,336.1349182,37.18221508,10.06580723,14.2513283,-9999,339678.7943,1.133590698,0.523345947,-0.41053772,339678.7743,1.083297196,1.12506063,-0.685748885,-0.143962845,1.565137982,3.740202427,0.407524407,-0.170011282,0.127838761,XArbitraryZVertical,-0.502635369,0.283769982,0.257085342,0.77507378,0.698325694,0.6332528,-0.333664566,0,0,0,-1,-1,339659.5887,walking,2,2023-02-21T15:37:32.729-08:00,2023-02-14T17:43:35.488-08:00,40963,1.272834,0.7073622,1.941418,30401.45,78,100,2023-02-21T15:37:50.663-08:00,698715470.7,0,0.4400024,99.2793,1,0.51,0
2023-02-21T15:37:49.869-08:00,1677022669,34.06470224,-118.4501822,113.1202,1.39017,1.161646,336.1349182,37.15341446,10.06390973,14.25266832,-9999,339676.7276,1.343078613,0.560424805,-0.495162964,339676.7026,1.231357563,1.103527229,-0.730894194,-0.455294639,1.338119388,3.943094969,0.364155054,-0.25110817,0.103079796,XArbitraryZVertical,-0.531188415,0.2239228,0.306402253,0.757505789,0.664760292,0.667535722,-0.335394889,0,0,0,-1,-1,339659.5887,walking,2,2023-02-21T15:37:32.729-08:00,2023-02-14T17:43:35.488-08:00,40957,1.272919,0.7105907,1.938712,30397.01,78,100,2023-02-21T15:37:48.101-08:00,698715468.2,0,0.2900009,99.28022,1,0.51,0
2023-02-21T15:37:49.904-08:00,1677022669,34.06470224,-118.4501822,113.1202,1.39017,1.161646,336.1349182,37.15341446,10.06390973,14.25266832,-9999,339676.7627,1.441375732,0.205490112,-0.177597046,339676.7327,1.288934996,1.176562356,-0.623141627,0.775392652,0.995229721,3.833553791,0.539854228,-0.026658773,-0.195339113,XArbitraryZVertical,-0.521205467,0.269054733,0.33972282,0.735216057,0.749757528,0.583589196,-0.311908811,0,0,0,-1,-1,339659.5887,walking,2,2023-02-21T15:37:32.729-08:00,2023-02-14T17:43:35.488-08:00,40957,1.272919,0.7105907,1.938712,30397.01,78,100,2023-02-21T15:37:48.101-08:00,698715468.2,0,0.2900009,99.28022,1,0.51,0
2023-02-21T15:37:49.939-08:00,1677022669,34.06470224,-118.4501822,113.1202,1.39017,1.161646,336.1349182,37.15341446,10.06390973,14.25266832,-9999,339676.7977,1.326553345,0.168502808,-0.254837036,339676.7927,1.343799787,1.255943364,-0.397511976,-0.783553958,0.706012845,3.649955273,0.548102736,-0.250589907,0.10987103,XArbitraryZVertical,-0.483557476,0.351293385,0.403013765,0.693069274,0.876701951,0.387125522,-0.285530239,0,0,0,-1,-1,339659.5887,walking,2,2023-02-21T15:37:32.729-08:00,2023-02-14T17:43:35.488-08:00,40957,1.272919,0.7105907,1.938712,30397.01,78,100,2023-02-21T15:37:48.101-08:00,698715468.2,0,0.2900009,99.28022,1,0.51,0
2023-02-21T15:37:49.974-08:00,1677022669,34.06470224,-118.4501822,113.1202,1.39017,1.161646,336.1349182,37.15341446,10.06390973,14.25266832,-9999,339676.8327,1.23008728,0.320175171,-0.438018799,339676.8227,1.423711173,1.30364125,-0.30908292,-2.251128197,0.634231865,3.389050245,0.33023417,-0.08822751,-0.110795379,XArbitraryZVertical,-0.484207113,0.373903798,0.442423102,0.655744704,0.918819726,0.304185152,-0.251478851,0,0,0,-1,-1,339659.5887,walking,2,2023-02-21T15:37:32.729-08:00,2023-02-14T17:43:35.488-08:00,40957,1.272919,0.7105907,1.938712,30397.01,78,100,2023-02-21T15:37:48.101-08:00,698715468.2,0,0.2900009,99.28022,1,0.51,0
2023-02-21T15:37:50.009-08:00,1677022669,34.06470224,-118.4501822,113.1202,1.39017,1.161646,336.1349182,37.15341446,10.06390973,14.25266832,-9999,339676.8678,1.025100708,0.62411499,-0.416091919,339676.8527,1.52923277,1.346589005,-0.233484926,-2.852749109,0.314696282,3.121542692,0.256211281,0.187560767,-0.241585016,XArbitraryZVertical,-0.494443325,0.383895036,0.485091468,0.610603552,0.948515832,0.231369287,-0.2163008,0,0,0,-1,-1,339659.5887,walking,2,2023-02-21T15:37:32.729-08:00,2023-02-14T17:43:35.488-08:00,40957,1.272919,0.7105907,1.938712,30397.01,78,100,2023-02-21T15:37:48.101-08:00,698715468.2,0,0.2900009,99.28022,1,0.51,0
2023-02-21T15:37:50.045-08:00,1677022669,34.06470224,-118.4501822,113.1202,1.39017,1.161646,336.1349182,37.15341446,10.06390973,14.25266832,-9999,339676.9028,0.784866333,0.634674072,-0.30317688,339676.8828,1.624641516,1.370795067,-0.161839392,-2.115557194,0.086188018,2.785699844,0.013300896,0.476424128,-0.202225804,XArbitraryZVertical,-0.501009523,0.388525721,0.524926094,0.567881833,0.967259347,0.161133841,-0.196074441,0,0,0,-1,-1,339659.5887,walking,2,2023-02-21T15:37:32.729-08:00,2023-02-14T17:43:35.488-08:00,40957,1.272919,0.7105907,1.938712,30397.01,78,100,2023-02-21T15:37:48.101-08:00,698715468.2,0,0.2900009,99.28022,1,0.51,0
2023-02-21T15:37:50.079-08:00,1677022669,34.06470224,-118.4501822,113.1202,1.39017,1.161646,336.1349182,37.15341446,10.06390973,14.25266832,-9999,339676.9378,0.741546631,0.605010986,-0.298217773,339676.9128,1.685474789,1.382063714,-0.093942299,-0.970590055,0.145573929,2.385568857,-0.193045497,0.540869892,-0.11638999,XArbitraryZVertical,-0.499299753,0.396618589,0.554672077,0.534539316,0.977911711,0.093804181,-0.186786905,0,0,0,-1,-1,339659.5887,walking,2,2023-02-21T15:37:32.729-08:00,2023-02-14T17:43:35.488-08:00,40957,1.272919,0.7105907,1.938712,30397.01,78,100,2023-02-21T15:37:48.101-08:00,698715468.2,0,0.2900009,99.28022,1,0.51,0
2023-02-21T15:37:50.115-08:00,1677022669,34.06470224,-118.4501822,113.1202,1.39017,1.161646,336.1349182,37.15341446,10.06390973,14.25266832,-9999,339676.9728,0.816040039,0.562026978,-0.290863037,339676.9428,1.712417842,1.38980569,-0.03237733,-0.148242503,0.246884555,1.961436629,-0.245983005,0.575126469,-0.117575631,XArbitraryZVertical,-0.491752409,0.41015203,0.573338348,0.511114373,0.983150244,0.032371674,-0.179909766,0,0,0,-1,-1,339659.5887,walking,2,2023-02-21T15:37:32.729-08:00,2023-02-14T17:43:35.488-08:00,40957,1.272919,0.7105907,1.938712,30397.01,78,100,2023-02-21T15:37:48.101-08:00,698715468.2,0,0.2900009,99.28022,1,0.51,0
2023-02-21T15:37:50.150-08:00,1677022669,34.06470224,-118.4501822,113.1202,1.39017,1.161646,336.1349182,37.15341446,10.06390973,14.25266832,-9999,339677.0079,0.817245483,0.616073608,-0.315841675,339677.0029,1.726277808,1.404119466,0.0690142,0.184049204,0.184007585,1.495153666,-0.159422696,0.661549747,-0.142853722,XArbitraryZVertical,-0.473313076,0.43956697,0.594321711,0.47910039,0.983793914,-0.06895943,-0.165511221,0,0,0,-1,-1,339659.5887,walking,2,2023-02-21T15:37:32.729-08:00,2023-02-14T17:43:35.488-08:00,40957,1.272919,0.7105907,1.938712,30397.01,78,100,2023-02-21T15:37:48.101-08:00,698715468.2,0,0.2900009,99.28022,1,0.51,0
2023-02-21T15:37:50.185-08:00,1677022669,34.06470224,-118.4501822,113.1202,1.39017,1.161646,336.1349182,37.15341446,10.06390973,14.25266832,-9999,339677.0429,0.899795532,0.658157349,-0.291427612,339677.0329,1.726787328,1.409266305,0.11088365,0.226242855,0.179580554,1.240734696,-0.159494638,0.749038517,-0.153147593,XArbitraryZVertical,-0.464135769,0.452390964,0.601481927,0.467054513,0.98092103,-0.110656567,-0.159840807,0,0,0,-1,-1,339659.5887,walking,2,2023-02-21T15:37:32.729-08:00,2023-02-14T17:43:35.488-08:00,40957,1.272919,0.7105907,1.938712,30397.01,78,100,2023-02-21T15:37:48.101-08:00,698715468.2,0,0.2900009,99.28022,1,0.51,0
2023-02-21T15:37:50.220-08:00,1677022669,34.06470224,-118.4501822,113.1202,1.39017,1.161646,336.1349182,37.15341446,10.06390973,14.25266832,-9999,339677.0779,1.148742676,0.717834473,-0.331726074,339677.0629,1.724357274,1.415221413,0.144325764,0.302212566,0.161874205,0.919864655,-0.003728569,0.811763525,-0.132246479,XArbitraryZVertical,-0.456594481,0.463522308,0.605974746,0.457671312,0.977651179,-0.143825233,-0.153337106,0,0,0,-1,-1,339659.5887,walking,2,2023-02-21T15:37:32.729-08:00,2023-02-14T17:43:35.488-08:00,40957,1.272919,0.7105907,1.938712,30397.01,78,100,2023-02-21T15:37:48.101-08:00,698715468.2,0,0.2900009,99.28022,1,0.51,0
2023-02-21T15:37:50.258-08:00,1677022669,34.06470224,-118.4501822,113.1202,1.39017,1.161646,336.1349182,37.15341446,10.06390973,14.25266832,-9999,339677.113,1.23059082,0.77192688,-0.311767578,339677.0929,1.71720037,1.418852414,0.166757589,0.343365759,0.008721929,0.442315876,0.189616203,0.898285627,-0.187791228,XArbitraryZVertical,-0.450055255,0.472038269,0.607765772,0.453046162,0.974766612,-0.165985793,-0.149260283,0,0,0,-1,-1,339659.5887,walking,2,2023-02-21T15:37:32.729-08:00,2023-02-14T17:43:35.488-08:00,40957,1.272919,0.7105907,1.938712,30397.01,78,100,2023-02-21T15:37:48.101-08:00,698715468.2,0,0.2900009,99.28022,1,0.51,0
2023-02-21T15:37:50.290-08:00,1677022670,34.06471053,-118.4501866,112.7617,1.179006,1.171565,336.1349182,42.03970144,10.06506556,14.25185211,-9999,339677.148,1.608154297,0.855484009,-0.504135132,339677.123,1.70822233,1.423422805,0.170671183,0.370097697,0.217585266,-0.284470558,0.255802155,0.941770732,-0.16706048,XArbitraryZVertical,-0.448263686,0.476136622,0.605443133,0.453643124,0.974788547,-0.169843823,-0.144707173,0,0,0,-1,-1,339659.5887,walking,2,2023-02-21T15:37:32.729-08:00,2023-02-14T17:43:35.488-08:00,40957,1.272919,0.7105907,1.938712,30397.01,78,100,2023-02-21T15:37:48.101-08:00,698715468.2,0,0.2900009,99.28022,1,0.51,0
2023-02-21T15:37:50.325-08:00,1677022670,34.06471053,-118.4501866,112.7617,1.179006,1.171565,336.1349182,42.03970144,10.06506556,14.25185211,-9999,339677.183,1.148422241,0.69631958,-0.353317261,339677.153,1.688705994,1.425768735,0.152992363,0.748568535,-0.324015588,-1.088729382,0.653159499,1.003043175,-0.345327616,XArbitraryZVertical,-0.449077101,0.476354843,0.597043582,0.463631949,0.977943838,-0.152396217,-0.142831638,0,0,0,-1,-1,339659.5887,walking,2,2023-02-21T15:37:32.729-08:00,2023-02-14T17:43:35.488-08:00,40957,1.272919,0.7105907,1.938712,30397.01,78,100,2023-02-21T15:37:48.101-08:00,698715468.2,0,0.2900009,99.28022,1,0.51,0
2023-02-21T15:37:50.360-08:00,1677022670,34.06471053,-118.4501866,112.7617,1.179006,1.171565,336.1349182,42.03970144,10.06506556,14.25185211,-9999,339677.218,1.142089844,0.498825073,-0.186706543,339677.213,1.612144779,1.407786193,0.034240036,1.129169583,-0.395954311,-3.202462673,0.058512807,0.58881402,-0.066687867,XArbitraryZVertical,-0.457891745,0.457425555,0.557666001,0.519716744,0.986164749,-0.034233347,-0.162194028,0,0,0,-1,-1,339659.5887,walking,2,2023-02-21T15:37:32.729-08:00,2023-02-14T17:43:35.488-08:00,40957,1.272919,0.7105907,1.938712,30397.01,78,100,2023-02-21T15:37:48.101-08:00,698715468.2,0,0.2900009,99.28022,1,0.51,0
2023-02-21T15:37:50.395-08:00,1677022670,34.06471053,-118.4501866,112.7617,1.179006,1.171565,336.1349182,42.03970144,10.06506556,14.25185211,-9999,339677.2531,1.523086548,0.442504883,-0.191543579,339677.2431,1.553287685,1.393023404,-0.063769261,1.676283479,-0.562035143,-3.742364407,0.353057146,0.417215705,0.004115224,XArbitraryZVertical,-0.466866518,0.440223073,0.522780617,0.561194912,0.982239425,0.063726053,-0.176478595,0,0,0,-1,-1,339659.5887,walking,2,2023-02-21T15:37:32.729-08:00,2023-02-14T17:43:35.488-08:00,40957,1.272919,0.7105907,1.938712,30397.01,78,100,2023-02-21T15:37:48.101-08:00,698715468.2,0,0.2900009,99.28022,1,0.51,0
2023-02-21T15:37:50.430-08:00,1677022670,34.06471053,-118.4501866,112.7617,1.179006,1.171565,336.1349182,42.03970144,10.06506556,14.25185211,-9999,339677.2881,1.578399658,0.424636841,-0.248336792,339677.2731,1.47462308,1.361077749,-0.165790206,2.064636946,-0.931386173,-3.788956642,0.609036982,0.267158151,-0.003288135,XArbitraryZVertical,-0.469207438,0.420926774,0.482172365,0.608419884,0.964678168,0.165031746,-0.205330059,0,0,0,-1,-1,339659.5887,walking,2,2023-02-21T15:37:32.729-08:00,2023-02-14T17:43:35.488-08:00,40957,1.272919,0.7105907,1.938712,30397.01,78,100,2023-02-21T15:37:48.101-08:00,698715468.2,0,0.2900009,99.28022,1,0.51,0
2023-02-21T15:37:50.465-08:00,1677022670,34.06471053,-118.4501866,112.7617,1.179006,1.171565,336.1349182,42.03970144,10.06506556,14.25185211,-9999,339677.3231,1.395324707,0.35345459,-0.251693726,339677.3031,1.388369585,1.309688371,-0.261308917,1.806034446,-1.244768977,-3.684627533,0.627254188,0.162354797,-0.003999919,XArbitraryZVertical,-0.465734467,0.397991999,0.442111331,0.655157437,0.933307827,0.258345246,-0.249387547,0,0,0,-1,-1,339659.5887,walking,2,2023-02-21T15:37:32.729-08:00,2023-02-14T17:43:35.488-08:00,40957,1.272919,0.7105907,1.938712,30397.01,78,100,2023-02-21T15:37:48.101-08:00,698715468.2,0,0.2900009,99.28022,1,0.51,0
2023-02-21T15:37:50.500-08:00,1677022670,34.06471053,-118.4501866,112.7617,1.179006,1.171565,336.1349182,42.03970144,10.06506556,14.25185211,-9999,339677.3582,1.173553467,0.231170654,-0.143066406,339677.3331,1.310759061,1.245974333,-0.353924052,1.082342625,-1.402811766,-3.638493299,0.50635612,0.00687328,0.047665954,XArbitraryZVertical,-0.463392685,0.368221864,0.405804131,0.696421452,0.888968527,0.34658131,-0.299359769,0,0,0,-1,-1,339659.5887,walking,2,2023-02-21T15:37:32.729-08:00,2023-02-14T17:43:35.488-08:00,40957,1.272919,0.7105907,1.938712,30397.01,78,100,2023-02-21T15:37:48.101-08:00,698715468.2,0,0.2900009,99.28022,1,0.51,0
2023-02-21T15:37:50.535-08:00,1677022670,34.06471053,-118.4501866,112.7617,1.179006,1.171565,336.1349182,42.03970144,10.06506556,14.25185211,-9999,339677.3932,0.999938965,0.200805664,-0.048721313,339677.3632,1.248812196,1.179480017,-0.450547214,0.228014916,-1.407288909,-3.728705168,0.369988203,-0.189623892,0.178992212,XArbitraryZVertical,-0.467529277,0.331276372,0.372801706,0.729856966,0.832160175,0.435458213,-0.343344688,0,0,0,-1,-1,339659.5887,walking,2,2023-02-21T15:37:32.729-08:00,2023-02-14T17:43:35.488-08:00,40957,1.272919,0.7105907,1.938712,30397.01,78,100,2023-02-21T15:37:48.101-08:00,698715468.2,0,0.2900009,99.28022,1,0.51,0
2023-02-21T15:37:50.570-08:00,1677022670,34.06471053,-118.4501866,112.7617,1.179006,1.171565,336.1349182,42.03970144,10.06506556,14.25185211,-9999,339677.4282,0.927749634,0.211761475,-0.015197754,339677.4232,1.138408149,1.04293584,-0.664896476,-0.29964444,-1.144527316,-4.005994797,0.265801311,-0.412754059,0.376173317,XArbitraryZVertical,-0.49214901,0.244118242,0.304796694,0.778006777,0.679862082,0.616977692,-0.396391273,0,0,0,-1,-1,339659.5887,walking,2,2023-02-21T15:37:32.729-08:00,2023-02-14T17:43:35.488-08:00,40957,1.272919,0.7105907,1.938712,30397.01,78,100,2023-02-21T15:37:48.101-08:00,698715468.2,0,0.2900009,99.28022,1,0.51,0
2023-02-21T15:37:50.605-08:00,1677022670,34.06471053,-118.4501866,112.7617,1.179006,1.171565,336.1349182,42.03970144,10.06506556,14.25185211,-9999,339677.4632,0.856430054,0.182220459,-0.022415161,339677.4532,1.057455389,0.957325573,-0.766740157,0.09585043,-1.004006743,-3.846037388,0.314403772,-0.475102305,0.398254275,XArbitraryZVertical,-0.502146841,0.201352122,0.266482249,0.797679817,0.588855505,0.69379127,-0.414611757,0,0,0,-1,-1,339659.5887,walking,2,2023-02-21T15:37:32.729-08:00,2023-02-14T17:43:35.488-08:00,40957,1.272919,0.7105907,1.938712,30397.01,78,100,2023-02-21T15:37:48.101-08:00,698715468.2,0,0.2900009,99.28022,1,0.51,0
2023-02-21T15:37:50.640-08:00,1677022670,34.06471053,-118.4501866,112.7617,1.179006,1.171565,336.1349182,42.03970144,10.06506556,14.25185211,-9999,339677.4983,0.727874756,0.035446167,0.003189087,339677.4833,0.952602505,0.852680744,-0.848128533,0.247294188,-0.922234535,-3.360343695,0.334737957,-0.627348125,0.412344098,XArbitraryZVertical,-0.505749761,0.163191628,0.229256997,0.815491832,0.498056233,0.750043929,-0.435171336,0,0,0,-1,-1,339659.5887,walking,2,2023-02-21T15:37:32.729-08:00,2023-02-14T17:43:35.488-08:00,40957,1.272919,0.7105907,1.938712,30397.01,78,100,2023-02-21T15:37:48.101-08:00,698715468.2,0,0.2900009,99.28022,1,0.51,0
2023-02-21T15:37:50.675-08:00,1677022670,34.06471053,-118.4501866,112.7617,1.179006,1.171565,336.1349182,42.03970144,10.06506556,14.25185211,-9999,339677.5333,0.614974976,-0.004211426,0.028411865,339677.5133,0.850500417,0.74899304,-0.911471442,-0.123726554,-0.704850435,-2.631441832,0.2883811,-0.767334759,0.459871083,XArbitraryZVertical,-0.508646032,0.130226375,0.198108736,0.827691448,0.417108953,0.790405989,-0.448640615,0,0,0,-1,-1,339659.5887,walking,2,2023-02-21T15:37:32.729-08:00,2023-02-14T17:43:35.488-08:00,40957,1.272919,0.7105907,1.938712,30397.01,78,100,2023-02-21T15:37:48.101-08:00,698715468.2,0,0.2900009,99.28022,1,0.51,0
2023-02-21T15:37:50.710-08:00,1677022670,34.06471053,-118.4501866,112.7617,1.179006,1.171565,336.1349182,42.03970144,10.06506556,14.25185211,-9999,339677.5683,0.607055664,0.108123779,-0.014541626,339677.5433,0.779199833,0.675722301,-0.962459133,-0.542376995,-0.340026915,-1.687581778,0.257521689,-0.824810982,0.474330604,XArbitraryZVertical,-0.515575228,0.105937624,0.175717394,0.831915085,0.357453287,0.820599437,-0.445918798,0,0,0,-1,-1,339659.5887,walking,2,2023-02-21T15:37:32.729-08:00,2023-02-14T17:43:35.488-08:00,40957,1.272919,0.7105907,1.938712,30397.01,78,100,2023-02-21T15:37:48.101-08:00,698715468.2,0,0.2900009,99.28022,1,0.51,0
2023-02-21T15:37:50.746-08:00,1677022670,34.06471053,-118.4501866,112.7617,1.179006,1.171565,336.1349182,42.03970144,10.06506556,14.25185211,-9999,339677.6034,0.747573853,0.175628662,-0.034622192,339677.5733,0.749784183,0.647760705,-0.99769945,-0.576431632,0.104561709,-0.581070125,0.27408582,-0.743271649,0.422710091,XArbitraryZVertical,-0.524373994,0.093979833,0.163149779,0.830410504,0.327186674,0.840225756,-0.432399422,0,0,0,-1,-1,339659.5887,walking,2,2023-02-21T15:37:32.729-08:00,2023-02-14T17:43:35.488-08:00,40963,1.272834,0.7073622,1.941418,30401.45,78,100,2023-02-21T15:37:50.663-08:00,698715470.7,0,0.4400024,99.2793,1,0.51,0
2023-02-21T15:37:50.780-08:00,1677022670,34.06471053,-118.4501866,112.7617,1.179006,1.171565,336.1349182,42.03970144,10.06506556,14.25185211,-9999,339677.6384,0.899154663,0.178237915,-0.024703979,339677.6334,0.835920052,0.749582327,-0.992422207,-0.254663318,0.866496623,1.957894087,0.451179117,-0.65027976,0.379177451,XArbitraryZVertical,-0.535579154,0.114382791,0.172879564,0.818647863,0.372459829,0.837352574,-0.400143087,0,0,0,-1,-1,339659.5887,walking,2,2023-02-21T15:37:32.729-08:00,2023-02-14T17:43:35.488-08:00,40963,1.272834,0.7073622,1.941418,30401.45,78,100,2023-02-21T15:37:50.663-08:00,698715470.7,0,0.4400024,99.2793,1,0.51,0
2023-02-21T15:37:50.815-08:00,1677022670,34.06471053,-118.4501866,112.7617,1.179006,1.171565,336.1349182,42.03970144,10.06506556,14.25185211,-9999,339677.6734,1.139984131,0.239089966,-0.116790771,339677.6634,0.939380762,0.867065195,-0.939816913,-0.184426755,1.235979199,3.256120443,0.571270585,-0.619309366,0.334898621,XArbitraryZVertical,-0.535939733,0.148002292,0.196602754,0.807595862,0.449786544,0.807450116,-0.381727844,0,0,0,-1,-1,339659.5887,walking,2,2023-02-21T15:37:32.729-08:00,2023-02-14T17:43:35.488-08:00,40963,1.272834,0.7073622,1.941418,30401.45,78,100,2023-02-21T15:37:50.663-08:00,698715470.7,0,0.4400024,99.2793,1,0.51,0
2023-02-21T15:37:50.850-08:00,1677022670,34.06471053,-118.4501866,112.7617,1.179006,1.171565,336.1349182,42.03970144,10.06506556,14.25185211,-9999,339677.7084,1.228347778,0.452331543,-0.476455688,339677.6934,1.052184359,0.996591076,-0.85042824,-0.012829386,1.448249817,4.212443352,0.622874856,-0.467581689,0.16017127,XArbitraryZVertical,-0.5319787,0.194538707,0.231321888,0.790976301,0.553867638,0.751562953,-0.358306706,0,0,0,-1,-1,339659.5887,walking,2,2023-02-21T15:37:32.729-08:00,2023-02-14T17:43:35.488-08:00,40963,1.272834,0.7073622,1.941418,30401.45,78,100,2023-02-21T15:37:50.663-08:00,698715470.7,0,0.4400024,99.2793,1,0.51,0
2023-02-21T15:37:50.885-08:00,1677022670,34.06471053,-118.4501866,112.7617,1.179006,1.171565,336.1349182,42.03970144,10.06506556,14.25185211,-9999,339677.7435,1.22215271,0.438232422,-0.449676514,339677.7235,1.136803761,1.098432643,-0.731392137,0.596544921,1.289044619,4.552553654,0.558474958,-0.185179353,-0.167645484,XArbitraryZVertical,-0.519464452,0.246665171,0.271441311,0.771772356,0.662746966,0.667906344,-0.338625938,0,0,0,-1,-1,339659.5887,walking,2,2023-02-21T15:37:32.729-08:00,2023-02-14T17:43:35.488-08:00,40963,1.272834,0.7073622,1.941418,30401.45,78,100,2023-02-21T15:37:50.663-08:00,698715470.7,0,0.4400024,99.2793,1,0.51,0
2023-02-21T15:37:21.496-08:00,1677022641,34.06438067,-118.449973,117.3437,1.42,0.84,329.5882568,35.9721953,6,14.26776723,-9999,339648.3545,0.501144409,1.028335571,0.041915894,339648.3294,1.684766223,1.381118895,-0.785615965,-1.907131791,-0.797500789,0.955382466,-0.336119354,-0.010880172,0.174015999,XArbitraryZVertical,-0.635557841,0.171525649,0.36914054,0.656033851,0.694273591,0.707260787,-0.133290365,0,0,0,-1,-1,339646.7782,unknown,2,2023-02-21T15:37:19.918-08:00,2023-02-14T17:43:35.488-08:00,40902,1.273687,1.086115,1.938066,30356.48,78,100,2023-02-21T15:37:19.918-08:00,698715440,0,-0.9500008,99.29464,1,0.51,0
2023-02-21T15:37:21.531-08:00,1677022641,34.06438067,-118.449973,117.3437,1.42,0.84,329.5882568,35.9721953,6,14.26776723,-9999,339648.3895,0.694702148,1.116851807,-0.162612915,339648.3595,1.759334864,1.416444867,-0.772007214,-1.177229881,-0.384376109,0.539266407,-0.259400487,0.242732704,0.16472137,XArbitraryZVertical,-0.646604194,0.163783403,0.386068127,0.637204295,0.707993507,0.697574854,-0.110156022,0,0,0,-1,-1,339646.7782,unknown,2,2023-02-21T15:37:19.918-08:00,2023-02-14T17:43:35.488-08:00,40902,1.273687,1.086115,1.938066,30356.48,78,100,2023-02-21T15:37:19.918-08:00,698715440,0,-0.9500008,99.29464,1,0.51,0
2023-02-21T15:37:21.566-08:00,1677022641,34.06438067,-118.449973,117.3437,1.42,0.84,329.5882568,35.9721953,6,14.26776723,-9999,339648.4245,0.637496948,0.7918396,-0.246307373,339648.4195,1.762303443,1.398426142,-0.747874103,0.345405728,-0.063767187,0.18338272,-0.105191231,0.191698551,-0.075334355,XArbitraryZVertical,-0.640098961,0.165530461,0.40005675,0.634686925,0.72227186,0.680081725,-0.125745967,0,0,0,-1,-1,339646.7782,unknown,2,2023-02-21T15:37:19.918-08:00,2023-02-14T17:43:35.488-08:00,40902,1.273687,1.086115,1.938066,30356.48,78,100,2023-02-21T15:37:19.918-08:00,698715440,0,-0.9500008,99.29464,1,0.51,0
2023-02-21T15:37:21.601-08:00,1677022641,34.06438067,-118.449973,117.3437,1.42,0.84,329.5882568,35.9721953,6,14.26776723,-9999,339648.4595,0.782730103,0.737289429,-0.22795105,339648.4495,1.760567747,1.40000637,-0.743362679,-0.199749365,0.148718446,0.15933305,-0.007697105,0.079656541,-0.135144576,XArbitraryZVertical,-0.639655189,0.16816337,0.400346426,0.634259324,0.725485682,0.676767349,-0.125124648,0,0,0,-1,-1,339646.7782,unknown,2,2023-02-21T15:37:19.918-08:00,2023-02-14T17:43:35.488-08:00,40902,1.273687,1.086115,1.938066,30356.48,78,100,2023-02-21T15:37:19.918-08:00,698715440,0,-0.9500008,99.29464,1,0.51,0
2023-02-21T15:37:21.636-08:00,1677022641,34.06438067,-118.449973,117.3437,1.42,0.84,329.5882568,35.9721953,6,14.26776723,-9999,339648.4946,0.832565308,0.696914673,-0.079284668,339648.4796,1.771745432,1.412489406,-0.736759337,-0.011061686,0.217458099,0.421836972,0.053172708,0.045409143,-0.086760938,XArbitraryZVertical,-0.642211979,0.170831321,0.401846253,0.630000005,0.73138845,0.671891272,-0.116760865,0,0,0,-1,-1,339646.7782,unknown,2,2023-02-21T15:37:19.918-08:00,2023-02-14T17:43:35.488-08:00,40902,1.273687,1.086115,1.938066,30356.48,78,100,2023-02-21T15:37:19.918-08:00,698715440,0,-0.9500008,99.29464,1,0.51,0
2023-02-21T15:37:21.671-08:00,1677022641,34.06438067,-118.449973,117.3437,1.42,0.84,329.5882568,35.9721953,6,14.26776723,-9999,339648.5296,1.099533081,0.761413574,0.030380249,339648.5096,1.760266436,1.414387796,-0.714508725,0.688992083,0.383085728,0.978044927,0.120413661,0.042797387,0.070385158,XArbitraryZVertical,-0.638539073,0.182843476,0.404233523,0.62883333,0.746193945,0.655246377,-0.117672227,0,0,0,-1,-1,339646.7782,unknown,2,2023-02-21T15:37:19.918-08:00,2023-02-14T17:43:35.488-08:00,40902,1.273687,1.086115,1.938066,30356.48,78,100,2023-02-21T15:37:19.918-08:00,698715440,0,-0.9500008,99.29464,1,0.51,0
2023-02-21T15:37:21.706-08:00,1677022641,34.06438067,-118.449973,117.3437,1.42,0.84,329.5882568,35.9721953,6,14.26776723,-9999,339648.5646,1.134140015,1.01373291,-0.164413452,339648.5396,1.733456742,1.40826449,-0.669944627,1.155055761,0.357087374,1.735514402,0.326007605,0.140470922,0.157221556,XArbitraryZVertical,-0.628204719,0.204788029,0.410888371,0.628165149,0.773525417,0.620942593,-0.126841381,0,0,0,-1,-1,339646.7782,unknown,2,2023-02-21T15:37:19.918-08:00,2023-02-14T17:43:35.488-08:00,40902,1.273687,1.086115,1.938066,30356.48,78,100,2023-02-21T15:37:19.918-08:00,698715440,0,-0.9500008,99.29464,1,0.51,0
2023-02-21T15:37:21.741-08:00,1677022641,34.06438067,-118.449973,117.3437,1.42,0.84,329.5882568,35.9721953,6,14.26776723,-9999,339648.5997,0.957824707,0.893478394,-0.225585938,339648.5696,1.686329861,1.390539087,-0.602325182,2.152118206,0.292633802,2.166506767,0.336669445,0.419218779,0.019726515,XArbitraryZVertical,-0.608328698,0.23679085,0.42122603,0.629630776,0.810669363,0.56656003,-0.147732571,0,0,0,-1,-1,339646.7782,unknown,2,2023-02-21T15:37:19.918-08:00,2023-02-14T17:43:35.488-08:00,40902,1.273687,1.086115,1.938066,30356.48,78,100,2023-02-21T15:37:19.918-08:00,698715440,0,-0.9500008,99.29464,1,0.51,0
2023-02-21T15:37:21.776-08:00,1677022641,34.06438067,-118.449973,117.3437,1.42,0.84,329.5882568,35.9721953,6,14.26776723,-9999,339648.6347,1.190917969,0.615997314,-0.170196533,339648.6297,1.585011908,1.369085278,-0.490236956,1.168213606,0.786477149,0.777984381,0.188720345,0.237478018,-0.00649339,XArbitraryZVertical,-0.56881144,0.296780743,0.427462254,0.636907092,0.864334345,0.470834941,-0.176749468,0,0,0,-1,-1,339646.7782,unknown,2,2023-02-21T15:37:19.918-08:00,2023-02-14T17:43:35.488-08:00,40902,1.273687,1.086115,1.938066,30356.48,78,100,2023-02-21T15:37:19.918-08:00,698715440,0,-0.9500008,99.29464,1,0.51,0
2023-02-21T15:37:21.811-08:00,1677022641,34.06438067,-118.449973,117.3437,1.42,0.84,329.5882568,35.9721953,6,14.26776723,-9999,339648.6697,1.294128418,0.72315979,-0.411499023,339648.6597,1.551570976,1.373526997,-0.474565235,0.919124246,0.428470522,-0.183946729,0.431943834,0.16531682,-0.080427274,XArbitraryZVertical,-0.561324616,0.312646651,0.419958107,0.640938186,0.872240007,0.456951767,-0.174333498,0,0,0,-1,-1,339646.7782,unknown,2,2023-02-21T15:37:19.918-08:00,2023-02-14T17:43:35.488-08:00,40902,1.273687,1.086115,1.938066,30356.48,78,100,2023-02-21T15:37:19.918-08:00,698715440,0,-0.9500008,99.29464,1,0.51,0
2023-02-21T15:37:21.846-08:00,1677022641,34.06438067,-118.449973,117.3437,1.42,0.84,329.5882568,35.9721953,6,14.26776723,-9999,339648.7047,1.03616333,0.662612915,-0.312484741,339648.6897,1.525093237,1.367118754,-0.491285925,0.36209926,0.02781127,-1.140811205,0.354608059,0.273341775,-0.238734901,XArbitraryZVertical,-0.55949417,0.312716863,0.408441509,0.649884527,0.863501012,0.471760124,-0.178348869,0,0,0,-1,-1,339646.7782,unknown,2,2023-02-21T15:37:19.918-08:00,2023-02-14T17:43:35.488-08:00,40902,1.273687,1.086115,1.938066,30356.48,78,100,2023-02-21T15:37:19.918-08:00,698715440,0,-0.9500008,99.29464,1,0.51,0
2023-02-21T15:37:21.881-08:00,1677022641,34.06438067,-118.449973,117.3437,1.42,0.84,329.5882568,35.9721953,6,14.26776723,-9999,339648.7398,0.87411499,0.62953186,-0.263702393,339648.7198,1.511284761,1.358046214,-0.535305735,-0.120527029,-0.181742087,-1.841273904,0.170921922,0.141064703,-0.105985925,XArbitraryZVertical,-0.565135121,0.299693882,0.393756367,0.660122464,0.840720415,0.510104001,-0.181611747,0,0,0,-1,-1,339646.7782,unknown,2,2023-02-21T15:37:19.918-08:00,2023-02-14T17:43:35.488-08:00,40902,1.273687,1.086115,1.938066,30356.48,78,100,2023-02-21T15:37:19.918-08:00,698715440,0,-0.9500008,99.29464,1,0.51,0
2023-02-21T15:37:21.916-08:00,1677022641,34.06438067,-118.449973,117.3437,1.42,0.84,329.5882568,35.9721953,6,14.26776723,-9999,339648.7748,0.734649658,0.541915894,-0.316680908,339648.7498,1.498636781,1.341894206,-0.595713265,0.028150911,-0.425776333,-2.20668602,0.067957401,0.06843245,-0.07587938,XArbitraryZVertical,-0.573127346,0.278592005,0.376411986,0.672477109,0.80615747,0.561099291,-0.187823087,0,0,0,-1,-1,339646.7782,unknown,2,2023-02-21T15:37:19.918-08:00,2023-02-14T17:43:35.488-08:00,40902,1.273687,1.086115,1.938066,30356.48,78,100,2023-02-21T15:37:19.918-08:00,698715440,0,-0.9500008,99.29464,1,0.51,0
2023-02-21T15:37:21.951-08:00,1677022641,34.06438067,-118.449973,117.3437,1.42,0.84,329.5882568,35.9721953,6,14.26776723,-9999,339648.8098,0.665588379,0.37928772,-0.258285522,339648.7798,1.467849929,1.308620865,-0.661520331,0.534532726,-0.594456136,-2.414789677,-0.016032577,-0.0530532,-0.108523965,XArbitraryZVertical,-0.576892748,0.254832641,0.35588068,0.689640512,0.762095809,0.614317179,-0.204510167,0,0,0,-1,-1,339646.7782,unknown,2,2023-02-21T15:37:19.918-08:00,2023-02-14T17:43:35.488-08:00,40902,1.273687,1.086115,1.938066,30356.48,78,100,2023-02-21T15:37:19.918-08:00,698715440,0,-0.9500008,99.29464,1,0.51,0
2023-02-21T15:37:21.986-08:00,1677022641,34.06438067,-118.449973,117.3437,1.42,0.84,329.5882568,35.9721953,6,14.26776723,-9999,339648.8449,0.557373047,0.232803345,-0.176483154,339648.8398,1.341199582,1.174369131,-0.778515062,0.959832072,-1.006755233,-2.138286114,-0.052265346,-0.417799234,0.070573986,XArbitraryZVertical,-0.566062216,0.205234797,0.313939866,0.734093998,0.656742275,0.702223003,-0.27490449,0,0,0,-1,-1,339646.7782,unknown,2,2023-02-21T15:37:19.918-08:00,2023-02-14T17:43:35.488-08:00,40902,1.273687,1.086115,1.938066,30356.48,78,100,2023-02-21T15:37:19.918-08:00,698715440,0,-0.9500008,99.29464,1,0.51,0
2023-02-21T15:37:22.021-08:00,1677022641,34.06438067,-118.449973,117.3437,1.42,0.84,329.5882568,35.9721953,6,14.26776723,-9999,339648.8799,0.479675293,0.143203735,-0.132843018,339648.8699,1.273345377,1.095274823,-0.821093669,0.657536864,-0.991747975,-1.739276052,-0.088013291,-0.538547397,0.158498377,XArbitraryZVertical,-0.557813106,0.181291176,0.298308054,0.752987643,0.605820298,0.731891513,-0.311956108,0,0,0,-1,-1,339646.7782,unknown,2,2023-02-21T15:37:19.918-08:00,2023-02-14T17:43:35.488-08:00,40902,1.273687,1.086115,1.938066,30356.48,78,100,2023-02-21T15:37:19.918-08:00,698715440,0,-0.9500008,99.29464,1,0.51,0
2023-02-21T15:37:22.056-08:00,1677022641,34.06438067,-118.449973,117.3437,1.42,0.84,329.5882568,35.9721953,6,14.26776723,-9999,339648.9149,0.440811157,0.086074829,-0.103317261,339648.8999,1.225150184,1.031571322,-0.853783003,0.131474376,-0.839366257,-1.178679705,-0.097813487,-0.636523306,0.213305473,XArbitraryZVertical,-0.55282615,0.160227981,0.288206234,0.765275981,0.563893139,0.753771722,-0.337420493,0,0,0,-1,-1,339646.7782,unknown,2,2023-02-21T15:37:19.918-08:00,2023-02-14T17:43:35.488-08:00,40902,1.273687,1.086115,1.938066,30356.48,78,100,2023-02-21T15:37:19.918-08:00,698715440,0,-0.9500008,99.29464,1,0.51,0
2023-02-21T15:37:22.091-08:00,1677022642,34.06439259,-118.4499786,117.3437,1.42,0.84,329.5882568,35.9721953,7.891443625,15.56103952,-9999,339648.9499,0.496307373,0.145080566,-0.062454224,339648.9299,1.209947682,0.998762075,-0.876936615,-0.368126601,-0.560980201,-0.455631196,-0.100764871,-0.682022095,0.248995632,XArbitraryZVertical,-0.553152698,0.144654828,0.284827811,0.769395923,0.537700236,0.76878345,-0.346194148,0,0,0,-1,-1,339646.7782,unknown,2,2023-02-21T15:37:19.918-08:00,2023-02-14T17:43:35.488-08:00,40902,1.273687,1.086115,1.938066,30356.48,78,100,2023-02-21T15:37:19.918-08:00,698715440,0,-0.9500008,99.29464,1,0.51,0
2023-02-21T15:37:22.129-08:00,1677022642,34.06439259,-118.4499786,117.3437,1.42,0.84,329.5882568,35.9721953,7.891443625,15.56103952,-9999,339648.985,0.765304565,0.20880127,-0.037200928,339648.9599,1.229292277,1.002658349,-0.885918628,-0.634681582,-0.180830956,0.434838533,-0.036895633,-0.629415929,0.277912945,XArbitraryZVertical,-0.557473399,0.137984758,0.288611703,0.766085388,0.533202887,0.774496436,-0.340367228,0,0,0,-1,-1,339646.7782,unknown,2,2023-02-21T15:37:19.918-08:00,2023-02-14T17:43:35.488-08:00,40902,1.273687,1.086115,1.938066,30356.48,78,100,2023-02-21T15:37:19.918-08:00,698715440,0,-0.9500008,99.29464,1,0.51,0
2023-02-21T15:37:22.161-08:00,1677022642,34.06439259,-118.4499786,117.3437,1.42,0.84,329.5882568,35.9721953,7.891443625,15.56103952,-9999,339649.02,1.077713013,0.279571533,0.015487671,339648.99,1.28229384,1.042744734,-0.872435302,-0.817474842,0.106941909,1.515748858,0.161762297,-0.566861451,0.290800482,XArbitraryZVertical,-0.563625496,0.142644245,0.301428838,0.755724502,0.55538547,0.765897036,-0.323957831,0,0,0,-1,-1,339646.7782,unknown,2,2023-02-21T15:37:19.918-08:00,2023-02-14T17:43:35.488-08:00,40902,1.273687,1.086115,1.938066,30356.48,78,100,2023-02-21T15:37:19.918-08:00,698715440,0,-0.9500008,99.29464,1,0.51,0
2023-02-21T15:37:22.196-08:00,1677022642,34.06439259,-118.4499786,117.3437,1.42,0.84,329.5882568,35.9721953,7.891443625,15.56103952,-9999,339649.055,1.46383667,0.388137817,0.006393433,339649.05,1.465352727,1.191755606,-0.757650072,-1.176940203,0.375238955,3.707737684,0.620856583,-0.366491795,0.296244204,XArbitraryZVertical,-0.576318032,0.182901757,0.360039662,0.710475779,0.674889207,0.687216222,-0.268808931,0,0,0,-1,-1,339646.7782,unknown,2,2023-02-21T15:37:19.918-08:00,2023-02-14T17:43:35.488-08:00,40902,1.273687,1.086115,1.938066,30356.48,78,100,2023-02-21T15:37:19.918-08:00,698715440,0,-0.9500008,99.29464,1,0.51,0
2023-02-21T15:37:22.231-08:00,1677022642,34.06439259,-118.4499786,117.3437,1.42,0.84,329.5882568,35.9721953,7.891443625,15.56103952,-9999,339649.0901,1.535263062,0.620101929,-0.188873291,339649.08,1.558683795,1.262482408,-0.652219825,-0.854712129,0.268317401,4.391515255,0.811950028,-0.122531354,0.179947034,XArbitraryZVertical,-0.576882549,0.21592557,0.402980763,0.676896695,0.75726372,0.606952071,-0.24116534,0,0,0,-1,-1,339646.7782,unknown,2,2023-02-21T15:37:19.918-08:00,2023-02-14T17:43:35.488-08:00,40902,1.273687,1.086115,1.938066,30356.48,78,100,2023-02-21T15:37:19.918-08:00,698715440,0,-0.9500008,99.29464,1,0.51,0
2023-02-21T15:37:22.266-08:00,1677022642,34.06439259,-118.4499786,117.3437,1.42,0.84,329.5882568,35.9721953,7.891443625,15.56103952,-9999,339649.1251,1.292205811,0.707275391,-0.285949707,339649.1101,1.621729473,1.304882684,-0.528779699,-0.088670887,0.274201542,4.348341942,0.616111815,0.179998577,-0.016722068,XArbitraryZVertical,-0.567846154,0.253181478,0.446687439,0.643366207,0.833076298,0.504480064,-0.226899773,0,0,0,-1,-1,339646.7782,unknown,2,2023-02-21T15:37:19.918-08:00,2023-02-14T17:43:35.488-08:00,40902,1.273687,1.086115,1.938066,30356.48,78,100,2023-02-21T15:37:19.918-08:00,698715440,0,-0.9500008,99.29464,1,0.51,0
2023-02-21T15:37:22.301-08:00,1677022642,34.06439259,-118.4499786,117.3437,1.42,0.84,329.5882568,35.9721953,7.891443625,15.56103952,-9999,339649.1601,1.466506958,0.443023682,-0.20324707,339649.1401,1.638442965,1.327558132,-0.40603774,1.192706823,0.72233808,3.764401674,0.404264092,0.288438261,-0.062183082,XArbitraryZVertical,-0.549323139,0.295993197,0.478846158,0.617526097,0.891649604,0.394972324,-0.221264228,0,0,0,-1,-1,339646.7782,unknown,2,2023-02-21T15:37:19.918-08:00,2023-02-14T17:43:35.488-08:00,40902,1.273687,1.086115,1.938066,30356.48,78,100,2023-02-21T15:37:19.918-08:00,698715440,0,-0.9500008,99.29464,1,0.51,0
2023-02-21T15:37:22.336-08:00,1677022642,34.06439259,-118.4499786,117.3437,1.42,0.84,329.5882568,35.9721953,7.891443625,15.56103952,-9999,339649.1951,1.34387207,0.455703735,-0.36831665,339649.1701,1.615705325,1.344357681,-0.294926667,1.764653683,0.798428416,3.118217707,0.534109116,0.152353972,0.011567891,XArbitraryZVertical,-0.524648799,0.342543628,0.49620702,0.600987547,0.932397723,0.29066968,-0.214815006,0,0,0,-1,-1,339646.7782,unknown,2,2023-02-21T15:37:19.918-08:00,2023-02-14T17:43:35.488-08:00,40902,1.273687,1.086115,1.938066,30356.48,78,100,2023-02-21T15:37:19.918-08:00,698715440,0,-0.9500008,99.29464,1,0.51,0
2023-02-21T15:37:22.371-08:00,1677022642,34.06439259,-118.4499786,117.3437,1.42,0.84,329.5882568,35.9721953,7.891443625,15.56103952,-9999,339649.2302,0.934829712,0.277008057,-0.370040894,339649.2001,1.584945921,1.357217644,-0.200184963,1.379513264,0.46324563,2.571031332,0.429749966,0.258119553,-0.101798803,XArbitraryZVertical,-0.499363316,0.383110175,0.507513112,0.588466812,0.957762122,0.198850602,-0.207725748,0,0,0,-1,-1,339646.7782,unknown,2,2023-02-21T15:37:19.918-08:00,2023-02-14T17:43:35.488-08:00,40902,1.273687,1.086115,1.938066,30356.48,78,100,2023-02-21T15:37:19.918-08:00,698715440,0,-0.9500008,99.29464,1,0.51,0
2023-02-21T15:37:22.406-08:00,1677022642,34.06439259,-118.4499786,117.3437,1.42,0.84,329.5882568,35.9721953,7.891443625,15.56103952,-9999,339649.2652,0.677429199,0.30821228,-0.227478027,339649.2602,1.656221046,1.382419851,-0.094197022,-3.160099268,0.28897953,1.387290359,-0.245853305,0.127942279,-0.03678678,XArbitraryZVertical,-0.493606123,0.403900897,0.546648236,0.542579581,0.977954566,0.094057783,-0.18643412,0,0,0,-1,-1,339646.7782,unknown,2,2023-02-21T15:37:19.918-08:00,2023-02-14T17:43:35.488-08:00,40902,1.273687,1.086115,1.938066,30356.48,78,100,2023-02-21T15:37:19.918-08:00,698715440,0,-0.9500008,99.29464,1,0.51,0
2023-02-21T15:37:22.441-08:00,1677022642,34.06439259,-118.4499786,117.3437,1.42,0.84,329.5882568,35.9721953,7.891443625,15.56103952,-9999,339649.3002,0.593734741,0.565505981,-0.341934204,339649.2902,1.763630786,1.395647086,-0.077260813,-3.310345411,-0.068906486,0.930301607,-0.319638431,0.389246672,-0.149751142,XArbitraryZVertical,-0.514425503,0.385355368,0.57524026,0.505931191,0.981763124,0.077183969,-0.173735291,0,0,0,-1,-1,339646.7782,unknown,2,2023-02-21T15:37:19.918-08:00,2023-02-14T17:43:35.488-08:00,40902,1.273687,1.086115,1.938066,30356.48,78,100,2023-02-21T15:37:19.918-08:00,698715440,0,-0.9500008,99.29464,1,0.51,0
2023-02-21T15:37:22.476-08:00,1677022642,34.06439259,-118.4499786,117.3437,1.42,0.84,329.5882568,35.9721953,7.891443625,15.56103952,-9999,339649.3353,0.54977417,0.623443604,-0.196929932,339649.3202,1.856322397,1.396144717,-0.071062796,-2.711761951,-0.331425875,0.531772435,-0.413103044,0.494762391,-0.122449979,XArbitraryZVertical,-0.530512462,0.363171162,0.599192946,0.477106792,0.982301533,0.071003005,-0.173326477,0,0,0,-1,-1,339646.7782,unknown,2,2023-02-21T15:37:19.918-08:00,2023-02-14T17:43:35.488-08:00,40902,1.273687,1.086115,1.938066,30356.48,78,100,2023-02-21T15:37:19.918-08:00,698715440,0,-0.9500008,99.29464,1,0.51,0
2023-02-21T15:37:22.511-08:00,1677022642,34.06439259,-118.4499786,117.3437,1.42,0.84,329.5882568,35.9721953,7.891443625,15.56103952,-9999,339649.3703,0.561050415,0.761825562,-0.238830566,339649.3503,1.928661177,1.388913949,-0.072512072,-1.947423816,-0.478820026,0.250345111,-0.428979576,0.580413997,-0.012709424,XArbitraryZVertical,-0.541370948,0.34163512,0.617733619,0.456736313,0.980920374,0.072448544,-0.180405885,0,0,0,-1,-1,339646.7782,unknown,2,2023-02-21T15:37:19.918-08:00,2023-02-14T17:43:35.488-08:00,40902,1.273687,1.086115,1.938066,30356.48,78,100,2023-02-21T15:37:19.918-08:00,698715440,0,-0.9500008,99.29464,1,0.51,0
2023-02-21T15:37:20.445-08:00,1677022640,34.06436395,-118.4499619,117.4453,1.6,0.93,329.5882568,39.03230446,6,14.26776723,-9999,339647.3036,0.360870361,0.316574097,-0.328598022,339647.2786,1.122266859,1.132894686,-0.703058642,-0.158461839,-0.086465038,-0.474805564,-0.352416158,-0.471902013,0.053055108,XArbitraryZVertical,-0.514104098,0.271944217,0.265125535,0.769058994,0.690886557,0.646554053,-0.323486626,0,0,0,-1,-1,339646.7782,unknown,2,2023-02-21T15:37:19.918-08:00,2023-02-14T17:43:35.488-08:00,40902,1.273687,1.086115,1.938066,30356.48,78,100,2023-02-21T15:37:19.918-08:00,698715440,0,-0.9500008,99.29464,1,0.51,0
2023-02-21T15:37:20.482-08:00,1677022640,34.06436395,-118.4499619,117.4453,1.6,0.93,329.5882568,39.03230446,6,14.26776723,-9999,339647.3386,0.630508423,0.549133301,-0.630462646,339647.3086,1.114314581,1.128756037,-0.710896578,0.252943933,0.146237522,-0.189200476,-0.346515417,-0.341600478,0.040473849,XArbitraryZVertical,-0.514728364,0.270133444,0.26085127,0.770739286,0.684939981,0.652513444,-0.324165255,0,0,0,-1,-1,339646.7782,unknown,2,2023-02-21T15:37:19.918-08:00,2023-02-14T17:43:35.488-08:00,40902,1.273687,1.086115,1.938066,30356.48,78,100,2023-02-21T15:37:19.918-08:00,698715440,0,-0.9500008,99.29464,1,0.51,0
2023-02-21T15:37:20.515-08:00,1677022640,34.06436395,-118.4499619,117.4453,1.6,0.93,329.5882568,39.03230446,6,14.26776723,-9999,339647.3736,0.630325317,0.650100708,-0.473327637,339647.3686,1.117870342,1.133522207,-0.718464566,-0.293179423,-0.032614257,-0.078449316,-0.038490593,-0.031642735,-0.268254727,XArbitraryZVertical,-0.51798995,0.268864372,0.258786844,0.769693188,0.681984127,0.65822953,-0.318796724,0,0,0,-1,-1,339646.7782,unknown,2,2023-02-21T15:37:19.918-08:00,2023-02-14T17:43:35.488-08:00,40902,1.273687,1.086115,1.938066,30356.48,78,100,2023-02-21T15:37:19.918-08:00,698715440,0,-0.9500008,99.29464,1,0.51,0
2023-02-21T15:37:20.553-08:00,1677022640,34.06436395,-118.4499619,117.4453,1.6,0.93,329.5882568,39.03230446,6,14.26776723,-9999,339647.4087,0.867721558,1.241668701,-0.384811401,339647.3987,1.122282133,1.137876256,-0.725174664,0.069085829,0.102832377,-0.284962326,-0.006337047,0.30192852,-0.052551806,XArbitraryZVertical,-0.521046831,0.267447247,0.25739166,0.768590751,0.679341197,0.663266182,-0.313964337,0,0,0,-1,-1,339646.7782,unknown,2,2023-02-21T15:37:19.918-08:00,2023-02-14T17:43:35.488-08:00,40902,1.273687,1.086115,1.938066,30356.48,78,100,2023-02-21T15:37:19.918-08:00,698715440,0,-0.9500008,99.29464,1,0.51,0
2023-02-21T15:37:20.604-08:00,1677022640,34.06436395,-118.4499619,117.4453,1.6,0.93,329.5882568,39.03230446,6,14.26776723,-9999,339647.4437,0.784225464,0.901611328,-0.447601318,339647.4287,1.101393171,1.124296713,-0.732386764,0.584365189,-0.088634051,-0.569083512,0.220933735,0.584176481,-0.114262313,XArbitraryZVertical,-0.518591087,0.265556345,0.250763718,0.773085098,0.670682967,0.668646276,-0.321086228,0,0,0,-1,-1,339646.7782,unknown,2,2023-02-21T15:37:19.918-08:00,2023-02-14T17:43:35.488-08:00,40902,1.273687,1.086115,1.938066,30356.48,78,100,2023-02-21T15:37:19.918-08:00,698715440,0,-0.9500008,99.29464,1,0.51,0
2023-02-21T15:37:20.621-08:00,1677022640,34.06436395,-118.4499619,117.4453,1.6,0.93,329.5882568,39.03230446,6,14.26776723,-9999,339647.4787,0.823242188,0.874801636,-0.610900879,339647.4587,1.073934932,1.100435778,-0.741691811,0.518875241,-0.19412066,-0.439353943,0.089615226,0.234650373,-0.14735949,XArbitraryZVertical,-0.514725691,0.2607228,0.243571622,0.779585768,0.657256722,0.675536275,-0.334162176,0,0,0,-1,-1,339646.7782,unknown,2,2023-02-21T15:37:19.918-08:00,2023-02-14T17:43:35.488-08:00,40902,1.273687,1.086115,1.938066,30356.48,78,100,2023-02-21T15:37:19.918-08:00,698715440,0,-0.9500008,99.29464,1,0.51,0
2023-02-21T15:37:20.655-08:00,1677022640,34.06436395,-118.4499619,117.4453,1.6,0.93,329.5882568,39.03230446,6,14.26776723,-9999,339647.5138,1.004608154,0.727981567,-0.447143555,339647.4887,1.051433824,1.079230872,-0.741469633,0.424800992,-0.257276922,-0.102573566,0.173086286,0.199429154,-0.262807071,XArbitraryZVertical,-0.509175436,0.258250712,0.240261573,0.785061345,0.650155902,0.675372481,-0.348093897,0,0,0,-1,-1,339646.7782,unknown,2,2023-02-21T15:37:19.918-08:00,2023-02-14T17:43:35.488-08:00,40902,1.273687,1.086115,1.938066,30356.48,78,100,2023-02-21T15:37:19.918-08:00,698715440,0,-0.9500008,99.29464,1,0.51,0
2023-02-21T15:37:20.690-08:00,1677022640,34.06436395,-118.4499619,117.4453,1.6,0.93,329.5882568,39.03230446,6,14.26776723,-9999,339647.5488,0.831314087,0.749923706,-0.013320923,339647.5188,1.043847753,1.067027206,-0.738679818,-0.000570323,-0.254191667,-0.022020001,0.313720286,0.074902236,-0.148430437,XArbitraryZVertical,-0.505892175,0.256160146,0.241168408,0.787586684,0.647507071,0.673312426,-0.356910169,0,0,0,-1,-1,339646.7782,unknown,2,2023-02-21T15:37:19.918-08:00,2023-02-14T17:43:35.488-08:00,40902,1.273687,1.086115,1.938066,30356.48,78,100,2023-02-21T15:37:19.918-08:00,698715440,0,-0.9500008,99.29464,1,0.51,0
2023-02-21T15:37:20.725-08:00,1677022640,34.06436395,-118.4499619,117.4453,1.6,0.93,329.5882568,39.03230446,6,14.26776723,-9999,339647.5838,0.59286499,0.55960083,-0.109008789,339647.5788,1.019445948,1.046211968,-0.73624328,0.773391485,0.220873877,0.055633284,0.03947556,0.086700261,0.348623753,XArbitraryZVertical,-0.499539949,0.254744133,0.237442177,0.793212779,0.641356289,0.671508968,-0.371130526,0,0,0,-1,-1,339646.7782,unknown,2,2023-02-21T15:37:19.918-08:00,2023-02-14T17:43:35.488-08:00,40902,1.273687,1.086115,1.938066,30356.48,78,100,2023-02-21T15:37:19.918-08:00,698715440,0,-0.9500008,99.29464,1,0.51,0
2023-02-21T15:37:20.760-08:00,1677022640,34.06436395,-118.4499619,117.4453,1.6,0.93,329.5882568,39.03230446,6,14.26776723,-9999,339647.6188,0.502120972,0.388076782,-0.055557251,339647.6088,1.007564369,1.047828854,-0.722358987,0.033554465,0.386927217,0.409826547,-0.074180245,-0.258049726,0.193958163,XArbitraryZVertical,-0.493885598,0.262145199,0.236199339,0.794711756,0.649970651,0.661156356,-0.374713808,0,0,0,-1,-1,339646.7782,unknown,2,2023-02-21T15:37:19.918-08:00,2023-02-14T17:43:35.488-08:00,40902,1.273687,1.086115,1.938066,30356.48,78,100,2023-02-21T15:37:19.918-08:00,698715440,0,-0.9500008,99.29464,1,0.51,0
2023-02-21T15:37:20.795-08:00,1677022640,34.06436395,-118.4499619,117.4453,1.6,0.93,329.5882568,39.03230446,6,14.26776723,-9999,339647.6539,0.522445679,0.547241211,-0.138778687,339647.6389,1.021728724,1.070450925,-0.713056178,-0.302000374,0.511515677,0.462671548,-0.154599965,-0.225269735,0.315227717,XArbitraryZVertical,-0.495572908,0.270152323,0.238823706,0.79018239,0.663648307,0.6541484,-0.362850428,0,0,0,-1,-1,339646.7782,unknown,2,2023-02-21T15:37:19.918-08:00,2023-02-14T17:43:35.488-08:00,40902,1.273687,1.086115,1.938066,30356.48,78,100,2023-02-21T15:37:19.918-08:00,698715440,0,-0.9500008,99.29464,1,0.51,0
2023-02-21T15:37:20.830-08:00,1677022640,34.06436395,-118.4499619,117.4453,1.6,0.93,329.5882568,39.03230446,6,14.26776723,-9999,339647.6889,0.535766602,0.379592896,-0.246658325,339647.6689,1.041694012,1.099370601,-0.70365956,-0.317664921,0.513725579,0.54511106,-0.162723303,-0.109262168,0.180330753,XArbitraryZVertical,-0.498924264,0.279162817,0.24215804,0.783901938,0.679309607,0.647012353,-0.346285403,0,0,0,-1,-1,339646.7782,unknown,2,2023-02-21T15:37:19.918-08:00,2023-02-14T17:43:35.488-08:00,40902,1.273687,1.086115,1.938066,30356.48,78,100,2023-02-21T15:37:19.918-08:00,698715440,0,-0.9500008,99.29464,1,0.51,0
2023-02-21T15:37:20.865-08:00,1677022640,34.06436395,-118.4499619,117.4453,1.6,0.93,329.5882568,39.03230446,6,14.26776723,-9999,339647.7239,0.648025513,0.510299683,-0.189590454,339647.6989,1.071553017,1.132530611,-0.696652119,-1.012272596,0.396459877,0.551441669,-0.158738613,-0.262060702,0.078830868,XArbitraryZVertical,-0.505116401,0.286553294,0.247494956,0.775558336,0.694505095,0.641653478,-0.325489253,0,0,0,-1,-1,339646.7782,unknown,2,2023-02-21T15:37:19.918-08:00,2023-02-14T17:43:35.488-08:00,40902,1.273687,1.086115,1.938066,30356.48,78,100,2023-02-21T15:37:19.918-08:00,698715440,0,-0.9500008,99.29464,1,0.51,0
2023-02-21T15:37:20.900-08:00,1677022640,34.06436395,-118.4499619,117.4453,1.6,0.93,329.5882568,39.03230446,6,14.26776723,-9999,339647.759,0.618438721,0.486740112,-0.137969971,339647.7289,1.12189526,1.176232404,-0.696560807,-1.147649765,0.322000086,0.46621567,-0.079362512,-0.175702214,0.089903444,XArbitraryZVertical,-0.517852924,0.290514316,0.255709056,0.762917123,0.708116055,0.641583443,-0.294859558,0,0,0,-1,-1,339646.7782,unknown,2,2023-02-21T15:37:19.918-08:00,2023-02-14T17:43:35.488-08:00,40902,1.273687,1.086115,1.938066,30356.48,78,100,2023-02-21T15:37:19.918-08:00,698715440,0,-0.9500008,99.29464,1,0.51,0
2023-02-21T15:37:20.935-08:00,1677022640,34.06436395,-118.4499619,117.4453,1.6,0.93,329.5882568,39.03230446,6,14.26776723,-9999,339647.794,0.636428833,0.802734375,-0.088485718,339647.789,1.217182225,1.259778493,-0.704079711,-0.760278463,0.468945384,0.163247928,-0.103965223,-0.010232508,0.136180222,XArbitraryZVertical,-0.544728677,0.294350683,0.267016922,0.738464774,0.725638747,0.647332668,-0.233256683,0,0,0,-1,-1,339646.7782,unknown,2,2023-02-21T15:37:19.918-08:00,2023-02-14T17:43:35.488-08:00,40902,1.273687,1.086115,1.938066,30356.48,78,100,2023-02-21T15:37:19.918-08:00,698715440,0,-0.9500008,99.29464,1,0.51,0
2023-02-21T15:37:20.970-08:00,1677022640,34.06436395,-118.4499619,117.4453,1.6,0.93,329.5882568,39.03230446,6,14.26776723,-9999,339647.829,0.591552734,0.58291626,-0.263687134,339647.819,1.227992424,1.279295342,-0.704643875,0.109492958,0.351130813,0.013901082,-0.072262704,0.167331338,0.043424144,XArbitraryZVertical,-0.549070399,0.298410295,0.265486358,0.734159304,0.729702771,0.647762537,-0.21894598,0,0,0,-1,-1,339646.7782,unknown,2,2023-02-21T15:37:19.918-08:00,2023-02-14T17:43:35.488-08:00,40902,1.273687,1.086115,1.938066,30356.48,78,100,2023-02-21T15:37:19.918-08:00,698715440,0,-0.9500008,99.29464,1,0.51,0
2023-02-21T15:37:21.005-08:00,1677022640,34.06436395,-118.4499619,117.4453,1.6,0.93,329.5882568,39.03230446,6,14.26776723,-9999,339647.864,0.499099731,0.47277832,-0.250030518,339647.849,1.225121574,1.286104824,-0.702921264,-0.050822362,0.260030597,0.113145448,-0.182579398,-0.099696398,-0.080896199,XArbitraryZVertical,-0.549111564,0.302215012,0.263096039,0.733432366,0.732246697,0.646449268,-0.21428515,0,0,0,-1,-1,339646.7782,unknown,2,2023-02-21T15:37:19.918-08:00,2023-02-14T17:43:35.488-08:00,40902,1.273687,1.086115,1.938066,30356.48,78,100,2023-02-21T15:37:19.918-08:00,698715440,0,-0.9500008,99.29464,1,0.51,0
2023-02-21T15:37:21.040-08:00,1677022640,34.06436395,-118.4499619,117.4453,1.6,0.93,329.5882568,39.03230446,6,14.26776723,-9999,339647.8991,0.739074707,0.995697021,-0.221069336,339647.8791,1.238463056,1.303628846,-0.699643706,-0.396466732,0.339470267,0.253181905,-0.224241853,-0.117165983,-0.026536405,XArbitraryZVertical,-0.552644038,0.305932866,0.264163635,0.728839686,0.737928927,0.643945158,-0.201979294,0,0,0,-1,-1,339646.7782,unknown,2,2023-02-21T15:37:19.918-08:00,2023-02-14T17:43:35.488-08:00,40902,1.273687,1.086115,1.938066,30356.48,78,100,2023-02-21T15:37:19.918-08:00,698715440,0,-0.9500008,99.29464,1,0.51,0
2023-02-21T15:37:21.075-08:00,1677022640,34.06436395,-118.4499619,117.4453,1.6,0.93,329.5882568,39.03230446,6,14.26776723,-9999,339647.9341,0.906112671,0.81880188,-0.365844727,339647.9091,1.240534176,1.31304889,-0.693268942,0.45343253,0.18064782,0.097166382,-0.004678428,0.356642067,-0.025007844,XArbitraryZVertical,-0.552656915,0.310708195,0.264299673,0.726757471,0.743753076,0.639054954,-0.196061507,0,0,0,-1,-1,339646.7782,unknown,2,2023-02-21T15:37:19.918-08:00,2023-02-14T17:43:35.488-08:00,40902,1.273687,1.086115,1.938066,30356.48,78,100,2023-02-21T15:37:19.918-08:00,698715440,0,-0.9500008,99.29464,1,0.51,0
2023-02-21T15:37:21.111-08:00,1677022641,34.06438067,-118.449973,117.3437,1.42,0.84,329.5882568,35.9721953,6,14.26776723,-9999,339647.9691,1.036941528,0.923553467,-0.388961792,339647.9391,1.226092707,1.305988351,-0.689361975,0.097413659,-0.063324302,0.006159074,0.13207674,0.229952216,-0.19743906,XArbitraryZVertical,-0.548518481,0.313285165,0.262202304,0.729540746,0.744754195,0.636044979,-0.201959759,0,0,0,-1,-1,339646.7782,unknown,2,2023-02-21T15:37:19.918-08:00,2023-02-14T17:43:35.488-08:00,40902,1.273687,1.086115,1.938066,30356.48,78,100,2023-02-21T15:37:19.918-08:00,698715440,0,-0.9500008,99.29464,1,0.51,0
2023-02-21T15:37:21.145-08:00,1677022641,34.06438067,-118.449973,117.3437,1.42,0.84,329.5882568,35.9721953,6,14.26776723,-9999,339648.0042,1.238250732,1.373901367,-0.516082764,339647.9992,1.202642876,1.261845888,-0.687984331,0.809013367,-0.84740895,0.023415823,0.041240394,0.321408987,0.121170044,XArbitraryZVertical,-0.538723302,0.303858969,0.26601412,0.739380366,0.735950708,0.634981334,-0.234893858,0,0,0,-1,-1,339646.7782,unknown,2,2023-02-21T15:37:19.918-08:00,2023-02-14T17:43:35.488-08:00,40902,1.273687,1.086115,1.938066,30356.48,78,100,2023-02-21T15:37:19.918-08:00,698715440,0,-0.9500008,99.29464,1,0.51,0
2023-02-21T15:37:21.180-08:00,1677022641,34.06438067,-118.449973,117.3437,1.42,0.84,329.5882568,35.9721953,6,14.26776723,-9999,339648.0392,1.08454895,1.304107666,-0.330215454,339648.0292,1.169705844,1.221130671,-0.687707721,0.928212523,-0.826888561,-0.782728195,0.502616584,0.687772632,-0.132257164,XArbitraryZVertical,-0.528295125,0.297567652,0.264695889,0.749862559,0.725944757,0.634767592,-0.264715493,0,0,0,-1,-1,339646.7782,unknown,2,2023-02-21T15:37:19.918-08:00,2023-02-14T17:43:35.488-08:00,40902,1.273687,1.086115,1.938066,30356.48,78,100,2023-02-21T15:37:19.918-08:00,698715440,0,-0.9500008,99.29464,1,0.51,0
2023-02-21T15:37:21.215-08:00,1677022641,34.06438067,-118.449973,117.3437,1.42,0.84,329.5882568,35.9721953,6,14.26776723,-9999,339648.0742,0.942993164,0.216094971,-0.271743774,339648.0592,1.108941116,1.15693553,-0.697641604,1.416872025,-0.839936972,-0.876770437,0.301300585,0.308713973,0.019599736,XArbitraryZVertical,-0.513825324,0.286162369,0.25541131,0.767371976,0.70165956,0.642412126,-0.308189273,0,0,0,-1,-1,339646.7782,unknown,2,2023-02-21T15:37:19.918-08:00,2023-02-14T17:43:35.488-08:00,40902,1.273687,1.086115,1.938066,30356.48,78,100,2023-02-21T15:37:19.918-08:00,698715440,0,-0.9500008,99.29464,1,0.51,0
2023-02-21T15:37:21.250-08:00,1677022641,34.06438067,-118.449973,117.3437,1.42,0.84,329.5882568,35.9721953,6,14.26776723,-9999,339648.1092,0.760650635,0.135101318,-0.338424683,339648.0892,1.05655612,1.098615083,-0.708444659,0.617071569,-0.779291689,-0.991880655,0.229891002,-0.515552223,0.073337346,XArbitraryZVertical,-0.50232733,0.273813986,0.246797769,0.782166116,0.676282585,0.650653481,-0.345386297,0,0,0,-1,-1,339646.7782,unknown,2,2023-02-21T15:37:19.918-08:00,2023-02-14T17:43:35.488-08:00,40902,1.273687,1.086115,1.938066,30356.48,78,100,2023-02-21T15:37:19.918-08:00,698715440,0,-0.9500008,99.29464,1,0.51,0
2023-02-21T15:37:21.285-08:00,1677022641,34.06438067,-118.449973,117.3437,1.42,0.84,329.5882568,35.9721953,6,14.26776723,-9999,339648.1443,0.53692627,0.176589966,-0.515975952,339648.1193,1.033001926,1.061809973,-0.727528187,-0.014995974,-0.630971134,-0.594127715,0.108497977,-0.529924452,0.025495082,XArbitraryZVertical,-0.500472314,0.259937585,0.241351869,0.78975249,0.652152538,0.665025651,-0.363919824,0,0,0,-1,-1,339646.7782,unknown,2,2023-02-21T15:37:19.918-08:00,2023-02-14T17:43:35.488-08:00,40902,1.273687,1.086115,1.938066,30356.48,78,100,2023-02-21T15:37:19.918-08:00,698715440,0,-0.9500008,99.29464,1,0.51,0
2023-02-21T15:37:21.320-08:00,1677022641,34.06438067,-118.449973,117.3437,1.42,0.84,329.5882568,35.9721953,6,14.26776723,-9999,339648.1793,0.485397339,0.080337524,-0.35395813,339648.1493,1.030552602,1.042925992,-0.739686321,-0.249171719,-0.521163285,-0.123817571,-0.082162976,-0.50207454,-0.151658267,XArbitraryZVertical,-0.501608005,0.249709482,0.241704857,0.792220436,0.638132095,0.674056232,-0.37206918,0,0,0,-1,-1,339646.7782,unknown,2,2023-02-21T15:37:19.918-08:00,2023-02-14T17:43:35.488-08:00,40902,1.273687,1.086115,1.938066,30356.48,78,100,2023-02-21T15:37:19.918-08:00,698715440,0,-0.9500008,99.29464,1,0.51,0
2023-02-21T15:37:21.355-08:00,1677022641,34.06438067,-118.449973,117.3437,1.42,0.84,329.5882568,35.9721953,6,14.26776723,-9999,339648.2143,0.389282227,0.24357605,-0.188369751,339648.2093,1.155392337,1.096162368,-0.765279214,-2.915913343,-0.600263059,0.720662653,-0.227452099,-0.535008371,0.081255794,XArbitraryZVertical,-0.53093245,0.230899114,0.26942414,0.769549856,0.641468823,0.692738414,-0.329592675,0,0,0,-1,-1,339646.7782,unknown,2,2023-02-21T15:37:19.918-08:00,2023-02-14T17:43:35.488-08:00,40902,1.273687,1.086115,1.938066,30356.48,78,100,2023-02-21T15:37:19.918-08:00,698715440,0,-0.9500008,99.29464,1,0.51,0
2023-02-21T15:37:21.390-08:00,1677022641,34.06438067,-118.449973,117.3437,1.42,0.84,329.5882568,35.9721953,6,14.26776723,-9999,339648.2494,0.293945313,0.324279785,-0.02746582,339648.2394,1.284948297,1.165584962,-0.782186041,-3.178985119,-0.752156079,0.839552402,-0.31766957,-0.465314686,0.180264086,XArbitraryZVertical,-0.559678258,0.216651685,0.294531316,0.743689096,0.651928544,0.704831839,-0.279644579,0,0,0,-1,-1,339646.7782,unknown,2,2023-02-21T15:37:19.918-08:00,2023-02-14T17:43:35.488-08:00,40902,1.273687,1.086115,1.938066,30356.48,78,100,2023-02-21T15:37:19.918-08:00,698715440,0,-0.9500008,99.29464,1,0.51,0
2023-02-21T15:37:21.425-08:00,1677022641,34.06438067,-118.449973,117.3437,1.42,0.84,329.5882568,35.9721953,6,14.26776723,-9999,339648.2844,0.403625488,0.563827515,0.061157227,339648.2694,1.428771041,1.24618795,-0.794744767,-3.508418322,-0.737633228,0.789688885,-0.341040015,-0.293183208,0.25015384,XArbitraryZVertical,-0.589956062,0.200622096,0.319963907,0.713670525,0.663885474,0.713684857,-0.223405242,0,0,0,-1,-1,339646.7782,unknown,2,2023-02-21T15:37:19.918-08:00,2023-02-14T17:43:35.488-08:00,40902,1.273687,1.086115,1.938066,30356.48,78,100,2023-02-21T15:37:19.918-08:00,698715440,0,-0.9500008,99.29464,1,0.51,0
2023-02-21T15:37:21.461-08:00,1677022641,34.06438067,-118.449973,117.3437,1.42,0.84,329.5882568,35.9721953,6,14.26776723,-9999,339648.3194,0.358154297,0.696380615,0.040725708,339648.2994,1.576444187,1.328604532,-0.798683531,-2.965749741,-0.803869486,0.907818556,-0.272504091,-0.124015868,0.233937994,XArbitraryZVertical,-0.618624544,0.183424585,0.345360361,0.681458122,0.677289128,0.716438293,-0.167318195,0,0,0,-1,-1,339646.7782,unknown,2,2023-02-21T15:37:19.918-08:00,2023-02-14T17:43:35.488-08:00,40902,1.273687,1.086115,1.938066,30356.48,78,100,2023-02-21T15:37:19.918-08:00,698715440,0,-0.9500008,99.29464,1,0.51,0
2023-02-21T15:37:19.394-08:00,1677022639,34.06434671,-118.4499502,117.1491,1.6,0.74,327.9424438,28.81397264,6,14.26776723,-9999,339646.2527,-0.063781738,0.839782715,0.402435303,339646.2277,-2.857268777,3.089756664,-0.913877479,0.042410646,-0.224934906,0.156379789,-0.153100967,-0.136497438,-0.103664458,XArbitraryZVertical,-0.886435894,-0.13842362,0.085511996,0.433310423,0.03164101,0.791877568,0.609859407,0,0,0,-1,-1,339644.216,unknown,2,2023-02-21T15:37:17.356-08:00,2023-02-14T17:43:35.488-08:00,40902,1.273604,0.6718748,1.938066,30356.48,78,100,2023-02-21T15:37:17.356-08:00,698715437.4,0,-1.029999,99.29601,1,0.51,0
2023-02-21T15:37:19.429-08:00,1677022639,34.06434671,-118.4499502,117.1491,1.6,0.74,327.9424438,28.81397264,6,14.26776723,-9999,339646.2877,-0.028915405,0.897109985,0.336288452,339646.2577,-2.865720509,3.076877403,-0.918269904,0.229632407,-0.216691762,0.188216761,-0.125021785,0.046878219,-0.170896411,XArbitraryZVertical,-0.885485461,-0.137395928,0.089629967,0.434746109,0.039267376,0.794552326,0.605924308,0,0,0,-1,-1,339644.216,unknown,2,2023-02-21T15:37:17.356-08:00,2023-02-14T17:43:35.488-08:00,40902,1.273604,0.6718748,1.938066,30356.48,78,100,2023-02-21T15:37:17.356-08:00,698715437.4,0,-1.029999,99.29601,1,0.51,0
2023-02-21T15:37:19.464-08:00,1677022639,34.06434671,-118.4499502,117.1491,1.6,0.74,327.9424438,28.81397264,6,14.26776723,-9999,339646.3228,0.036697388,0.846450806,0.571609497,339646.3178,-2.892359845,3.035680985,-0.93424607,0.573506474,-0.346102059,0.317856193,-0.083804451,0.023897529,-0.133208275,XArbitraryZVertical,-0.881739057,-0.134473647,0.102787542,0.440326826,0.062838875,0.804151177,0.591093838,0,0,0,-1,-1,339644.216,unknown,2,2023-02-21T15:37:17.356-08:00,2023-02-14T17:43:35.488-08:00,40902,1.273604,0.6718748,1.938066,30356.48,78,100,2023-02-21T15:37:17.356-08:00,698715437.4,0,-1.029999,99.29601,1,0.51,0
2023-02-21T15:37:19.499-08:00,1677022639,34.06434671,-118.4499502,117.1491,1.6,0.74,327.9424438,28.81397264,6,14.26776723,-9999,339646.3578,0.134674072,1.013412476,0.324966431,339646.3478,-2.919027133,3.002594355,-0.957479016,1.164178371,-0.450236589,0.570435941,0.017740667,0.174627602,-0.050027966,XArbitraryZVertical,-0.876404211,-0.130122165,0.112289275,0.449861191,0.079747766,0.817743123,0.570032239,0,0,0,-1,-1,339644.216,unknown,2,2023-02-21T15:37:17.356-08:00,2023-02-14T17:43:35.488-08:00,40902,1.273604,0.6718748,1.938066,30356.48,78,100,2023-02-21T15:37:17.356-08:00,698715437.4,0,-1.029999,99.29601,1,0.51,0
2023-02-21T15:37:19.534-08:00,1677022639,34.06434671,-118.4499502,117.1491,1.6,0.74,327.9424438,28.81397264,6,14.26776723,-9999,339646.3928,0.142913818,0.777755737,0.334991455,339646.3778,-2.96840575,2.942858434,-0.997990669,1.672324181,-0.857548714,0.826411188,0.052571699,0.244500995,-0.264753103,XArbitraryZVertical,-0.866352892,-0.122860384,0.127963578,0.466865373,0.107004717,0.840383649,0.531324029,0,0,0,-1,-1,339644.216,unknown,2,2023-02-21T15:37:17.356-08:00,2023-02-14T17:43:35.488-08:00,40902,1.273604,0.6718748,1.938066,30356.48,78,100,2023-02-21T15:37:17.356-08:00,698715437.4,0,-1.029999,99.29601,1,0.51,0
2023-02-21T15:37:19.569-08:00,1677022639,34.06434671,-118.4499502,117.1491,1.6,0.74,327.9424438,28.81397264,6,14.26776723,-9999,339646.4279,0.224243164,1.012283325,0.512924194,339646.4079,-3.052839447,2.843226049,-1.038977756,1.901166797,-0.948968053,1.42116642,0.012294546,-0.100900114,-0.140015781,XArbitraryZVertical,-0.854312655,-0.111794724,0.15067342,0.484715581,0.149067134,0.861886322,0.484696358,0,0,0,-1,-1,339644.216,unknown,2,2023-02-21T15:37:17.356-08:00,2023-02-14T17:43:35.488-08:00,40902,1.273604,0.6718748,1.938066,30356.48,78,100,2023-02-21T15:37:17.356-08:00,698715437.4,0,-1.029999,99.29601,1,0.51,0
2023-02-21T15:37:19.604-08:00,1677022639,34.06434671,-118.4499502,117.1491,1.6,0.74,327.9424438,28.81397264,6,14.26776723,-9999,339646.4629,0.347473145,1.091491699,0.507736206,339646.4379,3.046034358,2.651685766,-1.106417378,4.630419254,-0.979856014,2.350260019,0.013502032,0.118183255,0.117736518,XArbitraryZVertical,-0.830587741,-0.087850791,0.181757886,0.519008827,0.210741073,0.894099891,0.395187527,0,0,0,-1,-1,339644.216,unknown,2,2023-02-21T15:37:17.356-08:00,2023-02-14T17:43:35.488-08:00,40902,1.273604,0.6718748,1.938066,30356.48,78,100,2023-02-21T15:37:17.356-08:00,698715437.4,0,-1.029999,99.29601,1,0.51,0
2023-02-21T15:37:19.639-08:00,1677022639,34.06434671,-118.4499502,117.1491,1.6,0.74,327.9424438,28.81397264,6,14.26776723,-9999,339646.4979,0.482467651,0.911376953,0.493469238,339646.4679,2.644543719,2.25729408,-1.177859812,4.401864052,-0.869095802,3.04560709,0.03865993,0.17014426,0.166926235,XArbitraryZVertical,-0.7869415,-0.045507885,0.221376087,0.574146826,0.296163648,0.923788667,0.242695779,0,0,0,-1,-1,339644.216,unknown,2,2023-02-21T15:37:17.356-08:00,2023-02-14T17:43:35.488-08:00,40902,1.273604,0.6718748,1.938066,30356.48,78,100,2023-02-21T15:37:17.356-08:00,698715437.4,0,-1.029999,99.29601,1,0.51,0
2023-02-21T15:37:19.674-08:00,1677022639,34.06434671,-118.4499502,117.1491,1.6,0.74,327.9424438,28.81397264,6,14.26776723,-9999,339646.533,0.526535034,1.139648438,0.208526611,339646.528,2.013094167,1.693392875,-1.070262568,4.980469227,1.337892771,3.295479774,-0.084339499,0.249733448,0.221205711,XArbitraryZVertical,-0.725152014,0.059140439,0.277229155,0.627535627,0.476292014,0.877326548,0.05868607,0,0,0,-1,-1,339644.216,unknown,2,2023-02-21T15:37:17.356-08:00,2023-02-14T17:43:35.488-08:00,40902,1.273604,0.6718748,1.938066,30356.48,78,100,2023-02-21T15:37:17.356-08:00,698715437.4,0,-1.029999,99.29601,1,0.51,0
2023-02-21T15:37:19.709-08:00,1677022639,34.06434671,-118.4499502,117.1491,1.6,0.74,327.9424438,28.81397264,6,14.26776723,-9999,339646.568,0.864715576,1.350067139,0.342208862,339646.558,1.677992522,1.453967068,-0.975378539,5.737013817,1.842165232,2.791691542,0.044363201,0.409405649,0.448813319,XArbitraryZVertical,-0.670766466,0.131851092,0.282976235,0.672764479,0.557031393,0.827914238,-0.065375276,0,0,0,-1,-1,339644.216,unknown,2,2023-02-21T15:37:17.356-08:00,2023-02-14T17:43:35.488-08:00,40902,1.273604,0.6718748,1.938066,30356.48,78,100,2023-02-21T15:37:17.356-08:00,698715437.4,0,-1.029999,99.29601,1,0.51,0
2023-02-21T15:37:19.744-08:00,1677022639,34.06434671,-118.4499502,117.1491,1.6,0.74,327.9424438,28.81397264,6,14.26776723,-9999,339646.603,0.970123291,1.032028198,-0.159759521,339646.588,1.424780277,1.311948433,-0.868859089,5.734438896,1.944484115,2.212703943,0.364765584,0.606936336,0.390756428,XArbitraryZVertical,-0.614067742,0.20070405,0.275584845,0.711822719,0.624186933,0.76359278,-0.165277392,0,0,0,-1,-1,339644.216,unknown,2,2023-02-21T15:37:17.356-08:00,2023-02-14T17:43:35.488-08:00,40902,1.273604,0.6718748,1.938066,30356.48,78,100,2023-02-21T15:37:17.356-08:00,698715437.4,0,-1.029999,99.29601,1,0.51,0
2023-02-21T15:37:19.779-08:00,1677022639,34.06434671,-118.4499502,117.1491,1.6,0.74,327.9424438,28.81397264,6,14.26776723,-9999,339646.638,0.822723389,0.271347046,-0.260696411,339646.618,1.229794221,1.224481549,-0.771793025,4.181185722,1.872178793,1.22201705,0.216374516,0.194134355,0.048480511,XArbitraryZVertical,-0.558754475,0.257223529,0.260684336,0.744092152,0.674113095,0.697421372,-0.243258983,0,0,0,-1,-1,339644.216,unknown,2,2023-02-21T15:37:17.356-08:00,2023-02-14T17:43:35.488-08:00,40902,1.273604,0.6718748,1.938066,30356.48,78,100,2023-02-21T15:37:17.356-08:00,698715437.4,0,-1.029999,99.29601,1,0.51,0
2023-02-21T15:37:19.814-08:00,1677022639,34.06434671,-118.4499502,117.1491,1.6,0.74,327.9424438,28.81397264,6,14.26776723,-9999,339646.6731,0.75352478,0.45526123,-0.302368164,339646.648,1.148514559,1.219975362,-0.722279466,0.62464571,1.41259408,0.483856291,0.118122697,-0.389749646,-0.002841473,XArbitraryZVertical,-0.534271358,0.29262023,0.246579422,0.753741441,0.704600632,0.661096692,-0.257855028,0,0,0,-1,-1,339644.216,unknown,2,2023-02-21T15:37:17.356-08:00,2023-02-14T17:43:35.488-08:00,40902,1.273604,0.6718748,1.938066,30356.48,78,100,2023-02-21T15:37:17.356-08:00,698715437.4,0,-1.029999,99.29601,1,0.51,0
2023-02-21T15:37:19.849-08:00,1677022639,34.06434671,-118.4499502,117.1491,1.6,0.74,327.9424438,28.81397264,6,14.26776723,-9999,339646.7081,0.550460815,0.764892578,-0.226013184,339646.6781,1.164129806,1.26719326,-0.723183535,-1.02329731,0.904661,-0.150167286,0.027199328,-0.276383579,-0.072102755,XArbitraryZVertical,-0.542582588,0.305840543,0.23944047,0.744804524,0.715415299,0.661774755,-0.22413139,0,0,0,-1,-1,339644.216,unknown,2,2023-02-21T15:37:17.356-08:00,2023-02-14T17:43:35.488-08:00,40902,1.273604,0.6718748,1.938066,30356.48,78,100,2023-02-21T15:37:17.356-08:00,698715437.4,0,-1.029999,99.29601,1,0.51,0
2023-02-21T15:37:19.884-08:00,1677022639,34.06434671,-118.4499502,117.1491,1.6,0.74,327.9424438,28.81397264,6,14.26776723,-9999,339646.7431,0.28213501,0.160430908,-0.430877686,339646.7381,1.223854323,1.322875639,-0.745202151,-0.32660979,-0.103112526,0.28600046,-0.34228611,0.162730396,-0.154413998,XArbitraryZVertical,-0.563783255,0.303272332,0.239161293,0.730052191,0.712479532,0.678120375,-0.180348665,0,0,0,-1,-1,339644.216,unknown,2,2023-02-21T15:37:17.356-08:00,2023-02-14T17:43:35.488-08:00,40902,1.273604,0.6718748,1.938066,30356.48,78,100,2023-02-21T15:37:17.356-08:00,698715437.4,0,-1.029999,99.29601,1,0.51,0
2023-02-21T15:37:19.920-08:00,1677022639,34.06434671,-118.4499502,117.1491,1.6,0.74,327.9424438,28.81397264,6,14.26776723,-9999,339646.7782,0.296615601,0.458755493,-0.106307983,339646.7681,1.263233286,1.350120145,-0.751282421,-1.083606005,0.081832364,0.109681204,-0.471545041,-0.354070127,-0.160268769,XArbitraryZVertical,-0.574417987,0.300100357,0.243765799,0.721499812,0.713091612,0.682576537,-0.159967497,0,0,0,-1,-1,339644.216,unknown,2,2023-02-21T15:37:17.356-08:00,2023-02-14T17:43:35.488-08:00,40902,1.273604,0.6718748,1.938066,30356.48,78,100,2023-02-21T15:37:17.356-08:00,698715437.4,0,-1.029999,99.29601,1,0.51,0
2023-02-21T15:37:19.954-08:00,1677022639,34.06434671,-118.4499502,117.1491,1.6,0.74,327.9424438,28.81397264,6,14.26776723,-9999,339646.8132,0.456726074,0.803665161,0.000427246,339646.7982,1.305327927,1.38142297,-0.75321823,-0.864582479,-0.049673006,0.098456807,-0.405277371,-0.20480305,0.118416324,XArbitraryZVertical,-0.585001158,0.298517414,0.249155574,0.711746048,0.716449797,0.683989942,-0.137321994,0,0,0,-1,-1,339644.216,unknown,2,2023-02-21T15:37:17.356-08:00,2023-02-14T17:43:35.488-08:00,40902,1.273604,0.6718748,1.938066,30356.48,78,100,2023-02-21T15:37:17.356-08:00,698715437.4,0,-1.029999,99.29601,1,0.51,0
2023-02-21T15:37:19.990-08:00,1677022639,34.06434671,-118.4499502,117.1491,1.6,0.74,327.9424438,28.81397264,6,14.26776723,-9999,339646.8482,0.372329712,0.678024292,0.006500244,339646.8282,1.332075603,1.396441974,-0.754889745,-0.294055283,-0.014010348,0.038824644,-0.276920497,0.109545588,0.086217359,XArbitraryZVertical,-0.591212572,0.295455037,0.253683461,0.70627091,0.717304289,0.68520838,-0.126348034,0,0,0,-1,-1,339644.216,unknown,2,2023-02-21T15:37:17.356-08:00,2023-02-14T17:43:35.488-08:00,40902,1.273604,0.6718748,1.938066,30356.48,78,100,2023-02-21T15:37:17.356-08:00,698715437.4,0,-1.029999,99.29601,1,0.51,0
2023-02-21T15:37:20.024-08:00,1677022639,34.06434671,-118.4499502,117.1491,1.6,0.74,327.9424438,28.81397264,6,14.26776723,-9999,339646.8832,0.858764648,0.686752319,-0.235733032,339646.8582,1.339103255,1.406704468,-0.747794679,-0.762786925,0.434976995,0.154771253,-0.351011753,-0.001999259,0.126271546,XArbitraryZVertical,-0.592102651,0.299213584,0.255411026,0.70331419,0.723341405,0.680023491,-0.119771361,0,0,0,-1,-1,339646.7782,unknown,2,2023-02-21T15:37:19.918-08:00,2023-02-14T17:43:35.488-08:00,40902,1.273687,1.086115,1.938066,30356.48,78,100,2023-02-21T15:37:19.918-08:00,698715440,0,-0.9500008,99.29464,1,0.51,0
2023-02-21T15:37:20.060-08:00,1677022639,34.06434671,-118.4499502,117.1491,1.6,0.74,327.9424438,28.81397264,6,14.26776723,-9999,339646.9183,0.978240967,0.541503906,-0.302734375,339646.8882,1.394089886,1.450329805,-0.743783476,-1.394001484,-0.122764587,0.404531151,0.137448013,0.012650609,-0.089540116,XArbitraryZVertical,-0.605191155,0.299206316,0.262795203,0.689316936,0.730578601,0.677077055,-0.088438496,0,0,0,-1,-1,339646.7782,unknown,2,2023-02-21T15:37:19.918-08:00,2023-02-14T17:43:35.488-08:00,40902,1.273687,1.086115,1.938066,30356.48,78,100,2023-02-21T15:37:19.918-08:00,698715440,0,-0.9500008,99.29464,1,0.51,0
2023-02-21T15:37:20.094-08:00,1677022640,34.06436395,-118.4499619,117.4453,1.6,0.93,329.5882568,39.03230446,6,14.26776723,-9999,339646.9533,1.094696045,0.867935181,-0.110015869,339646.9483,1.562081452,1.527211959,-0.70735848,-2.603923321,-0.866191328,1.151296139,0.253122449,0.068814933,-0.239374399,XArbitraryZVertical,-0.634394413,0.284578892,0.306971929,0.6498668,0.7593593,0.649828255,-0.033117168,0,0,0,-1,-1,339646.7782,unknown,2,2023-02-21T15:37:19.918-08:00,2023-02-14T17:43:35.488-08:00,40902,1.273687,1.086115,1.938066,30356.48,78,100,2023-02-21T15:37:19.918-08:00,698715440,0,-0.9500008,99.29464,1,0.51,0
2023-02-21T15:37:20.130-08:00,1677022640,34.06436395,-118.4499619,117.4453,1.6,0.93,329.5882568,39.03230446,6,14.26776723,-9999,339646.9883,1.182876587,1.744796753,0.372528076,339646.9783,1.654607974,1.560659268,-0.673034666,-1.663182974,-0.73668766,1.153750181,0.327252686,0.390249074,0.163794875,XArbitraryZVertical,-0.647654451,0.276731866,0.336560453,0.625052267,0.781893492,0.623361766,-0.007926372,0,0,0,-1,-1,339646.7782,unknown,2,2023-02-21T15:37:19.918-08:00,2023-02-14T17:43:35.488-08:00,40902,1.273687,1.086115,1.938066,30356.48,78,100,2023-02-21T15:37:19.918-08:00,698715440,0,-0.9500008,99.29464,1,0.51,0
2023-02-21T15:37:20.165-08:00,1677022640,34.06436395,-118.4499619,117.4453,1.6,0.93,329.5882568,39.03230446,6,14.26776723,-9999,339647.0234,0.934326172,1.251846313,0.438583374,339647.0083,1.653731433,1.543767844,-0.640562378,1.791239738,-0.304393232,0.877246916,0.290986121,1.091623545,0.427551448,XArbitraryZVertical,-0.639899631,0.282302335,0.351763233,0.622170692,0.801466823,0.597646415,-0.021667708,0,0,0,-1,-1,339646.7782,unknown,2,2023-02-21T15:37:19.918-08:00,2023-02-14T17:43:35.488-08:00,40902,1.273687,1.086115,1.938066,30356.48,78,100,2023-02-21T15:37:19.918-08:00,698715440,0,-0.9500008,99.29464,1,0.51,0
2023-02-21T15:37:20.200-08:00,1677022640,34.06436395,-118.4499619,117.4453,1.6,0.93,329.5882568,39.03230446,6,14.26776723,-9999,339647.0584,0.818481445,0.768981934,-0.273529053,339647.0384,1.558676363,1.48589754,-0.619123988,2.839445353,0.127344251,0.252345651,0.103905559,0.546875238,0.406963229,XArbitraryZVertical,-0.612431543,0.300664072,0.346399417,0.643844768,0.811453819,0.580321968,-0.069057442,0,0,0,-1,-1,339646.7782,unknown,2,2023-02-21T15:37:19.918-08:00,2023-02-14T17:43:35.488-08:00,40902,1.273687,1.086115,1.938066,30356.48,78,100,2023-02-21T15:37:19.918-08:00,698715440,0,-0.9500008,99.29464,1,0.51,0
2023-02-21T15:37:20.235-08:00,1677022640,34.06436395,-118.4499619,117.4453,1.6,0.93,329.5882568,39.03230446,6,14.26776723,-9999,339647.0934,0.839370728,0.731079102,-0.172744751,339647.0684,1.454887039,1.427089405,-0.611356841,2.437075615,0.207631961,-0.324304402,0.008052468,0.195002854,-0.156256452,XArbitraryZVertical,-0.584986816,0.31488742,0.332324081,0.669475267,0.810429096,0.57397908,-0.117272675,0,0,0,-1,-1,339646.7782,unknown,2,2023-02-21T15:37:19.918-08:00,2023-02-14T17:43:35.488-08:00,40902,1.273687,1.086115,1.938066,30356.48,78,100,2023-02-21T15:37:19.918-08:00,698715440,0,-0.9500008,99.29464,1,0.51,0
2023-02-21T15:37:20.270-08:00,1677022640,34.06436395,-118.4499619,117.4453,1.6,0.93,329.5882568,39.03230446,6,14.26776723,-9999,339647.1284,0.813476563,0.629623413,-0.080535889,339647.0984,1.386824645,1.386100972,-0.617574866,1.52358973,-0.296760082,-0.658896923,0.088168502,0.131618261,0.010503441,XArbitraryZVertical,-0.568843577,0.318676383,0.319131069,0.687762674,0.801418781,0.57905966,-0.149724692,0,0,0,-1,-1,339646.7782,unknown,2,2023-02-21T15:37:19.918-08:00,2023-02-14T17:43:35.488-08:00,40902,1.273687,1.086115,1.938066,30356.48,78,100,2023-02-21T15:37:19.918-08:00,698715440,0,-0.9500008,99.29464,1,0.51,0
2023-02-21T15:37:20.304-08:00,1677022640,34.06436395,-118.4499619,117.4453,1.6,0.93,329.5882568,39.03230446,6,14.26776723,-9999,339647.1635,0.700958252,0.219543457,-0.171661377,339647.1585,1.249999964,1.27223435,-0.636662564,1.480139136,-0.692230642,-0.902338564,-0.031543136,-0.26581037,0.134055495,XArbitraryZVertical,-0.534301701,0.310262069,0.296224222,0.728361388,0.768512011,0.594515204,-0.236518279,0,0,0,-1,-1,339646.7782,unknown,2,2023-02-21T15:37:19.918-08:00,2023-02-14T17:43:35.488-08:00,40902,1.273687,1.086115,1.938066,30356.48,78,100,2023-02-21T15:37:19.918-08:00,698715440,0,-0.9500008,99.29464,1,0.51,0
2023-02-21T15:37:20.340-08:00,1677022640,34.06436395,-118.4499619,117.4453,1.6,0.93,329.5882568,39.03230446,6,14.26776723,-9999,339647.1985,0.56980896,0.303482056,-0.202163696,339647.1885,1.19958929,1.221498698,-0.654460198,0.76498419,-0.660680532,-0.974845409,-0.102431357,-0.393109143,0.084176123,XArbitraryZVertical,-0.52389053,0.299627993,0.285733789,0.74439096,0.745467186,0.608731091,-0.271523565,0,0,0,-1,-1,339646.7782,unknown,2,2023-02-21T15:37:19.918-08:00,2023-02-14T17:43:35.488-08:00,40902,1.273687,1.086115,1.938066,30356.48,78,100,2023-02-21T15:37:19.918-08:00,698715440,0,-0.9500008,99.29464,1,0.51,0
2023-02-21T15:37:20.375-08:00,1677022640,34.06436395,-118.4499619,117.4453,1.6,0.93,329.5882568,39.03230446,6,14.26776723,-9999,339647.2335,0.547973633,0.279052734,-0.351791382,339647.2185,1.161941587,1.178925497,-0.671240048,0.771198869,-0.44222635,-0.771470785,-0.150496304,-0.234277546,0.076359242,XArbitraryZVertical,-0.516937576,0.288521895,0.277707002,0.756577412,0.723692656,0.621957481,-0.299061328,0,0,0,-1,-1,339646.7782,unknown,2,2023-02-21T15:37:19.918-08:00,2023-02-14T17:43:35.488-08:00,40902,1.273687,1.086115,1.938066,30356.48,78,100,2023-02-21T15:37:19.918-08:00,698715440,0,-0.9500008,99.29464,1,0.51,0
2023-02-21T15:37:20.410-08:00,1677022640,34.06436395,-118.4499619,117.4453,1.6,0.93,329.5882568,39.03230446,6,14.26776723,-9999,339647.2686,0.338470459,0.1746521,-0.270431519,339647.2485,1.129363419,1.145292161,-0.684707274,0.213943586,-0.396043986,-0.737506509,-0.178494811,-0.440765381,-0.029135823,XArbitraryZVertical,-0.511494426,0.280183642,0.270007894,0.766137266,0.705533326,0.632446289,-0.31974116,0,0,0,-1,-1,339646.7782,unknown,2,2023-02-21T15:37:19.918-08:00,2023-02-14T17:43:35.488-08:00,40902,1.273687,1.086115,1.938066,30356.48,78,100,2023-02-21T15:37:19.918-08:00,698715440,0,-0.9500008,99.29464,1,0.51,0
2023-02-21T15:37:18.343-08:00,1677022638,34.0643294,-118.449937,117.457,1.16,0.59,327.9424438,27.21271846,6,14.26776723,-9999,339645.2019,-0.176849365,0.854873657,0.51663208,339645.1768,-2.734628106,-2.874920498,-0.946456688,0.160709858,0.046210982,-0.176865608,-0.101524204,-0.00605154,-0.043940783,XArbitraryZVertical,-0.876244113,-0.118936428,-0.024606606,0.466309873,-0.154045254,0.811349332,0.563899219,0,0,0,-1,-1,339644.216,unknown,2,2023-02-21T15:37:17.356-08:00,2023-02-14T17:43:35.488-08:00,40902,1.273604,0.6718748,1.938066,30356.48,78,100,2023-02-21T15:37:17.356-08:00,698715437.4,0,-1.029999,99.29601,1,0.51,0
2023-02-21T15:37:18.378-08:00,1677022638,34.0643294,-118.449937,117.457,1.16,0.59,327.9424438,27.21271846,6,14.26776723,-9999,339645.2369,-0.210540771,0.99647522,0.605010986,339645.2069,-2.725621397,-2.864734975,-0.944588892,-0.162948892,0.134466141,-0.193983138,-0.02390264,0.043473125,-0.060171843,XArbitraryZVertical,-0.875961985,-0.120703506,-0.02719326,0.466242097,-0.160194635,0.810256064,0.563757479,0,0,0,-1,-1,339644.216,unknown,2,2023-02-21T15:37:17.356-08:00,2023-02-14T17:43:35.488-08:00,40902,1.273604,0.6718748,1.938066,30356.48,78,100,2023-02-21T15:37:17.356-08:00,698715437.4,0,-1.029999,99.29601,1,0.51,0
2023-02-21T15:37:18.413-08:00,1677022638,34.0643294,-118.449937,117.457,1.16,0.59,327.9424438,27.21271846,6,14.26776723,-9999,339645.2719,-0.196380615,1.008468628,0.620254517,339645.2669,-2.706608829,-2.839022339,-0.940613148,0.267430812,0.103220806,-0.199029788,-0.033161193,0.224245846,0.025458872,XArbitraryZVertical,-0.875223733,-0.123470531,-0.034514696,0.466419409,-0.17559427,0.807919562,0.562523127,0,0,0,-1,-1,339644.216,unknown,2,2023-02-21T15:37:17.356-08:00,2023-02-14T17:43:35.488-08:00,40902,1.273604,0.6718748,1.938066,30356.48,78,100,2023-02-21T15:37:17.356-08:00,698715437.4,0,-1.029999,99.29601,1,0.51,0
2023-02-21T15:37:18.448-08:00,1677022638,34.0643294,-118.449937,117.457,1.16,0.59,327.9424438,27.21271846,6,14.26776723,-9999,339645.3069,-0.202682495,0.874664307,0.745666504,339645.2969,-2.697873255,-2.831110197,-0.941957282,-0.162371159,-0.036635034,-0.068490192,-0.001185328,0.054341376,0.115928173,XArbitraryZVertical,-0.874267476,-0.1252888,-0.035760999,0.467632539,-0.179707602,0.808710933,0.56008178,0,0,0,-1,-1,339644.216,unknown,2,2023-02-21T15:37:17.356-08:00,2023-02-14T17:43:35.488-08:00,40902,1.273604,0.6718748,1.938066,30356.48,78,100,2023-02-21T15:37:17.356-08:00,698715437.4,0,-1.029999,99.29601,1,0.51,0
2023-02-21T15:37:18.483-08:00,1677022638,34.0643294,-118.449937,117.457,1.16,0.59,327.9424438,27.21271846,6,14.26776723,-9999,339645.342,-0.190353394,0.986801147,0.772094727,339645.327,-2.704782187,-2.839551605,-0.932382484,-0.474599898,-0.180196196,0.116703764,-0.020408794,0.134671748,0.201607525,XArbitraryZVertical,-0.876792616,-0.125330594,-0.034916601,0.462934003,-0.177268818,0.803041995,0.568946123,0,0,0,-1,-1,339644.216,unknown,2,2023-02-21T15:37:17.356-08:00,2023-02-14T17:43:35.488-08:00,40902,1.273604,0.6718748,1.938066,30356.48,78,100,2023-02-21T15:37:17.356-08:00,698715437.4,0,-1.029999,99.29601,1,0.51,0
2023-02-21T15:37:18.518-08:00,1677022638,34.0643294,-118.449937,117.457,1.16,0.59,327.9424438,27.21271846,6,14.26776723,-9999,339645.377,-0.180007935,0.878814697,0.707855225,339645.357,-2.718769757,-2.858838738,-0.922668333,-0.246641517,-0.311392754,0.195799738,-0.033075809,0.2045241,0.194203079,XArbitraryZVertical,-0.87994943,-0.124701558,-0.030889859,0.457366819,-0.168431729,0.797215343,0.579722941,0,0,0,-1,-1,339644.216,unknown,2,2023-02-21T15:37:17.356-08:00,2023-02-14T17:43:35.488-08:00,40902,1.273604,0.6718748,1.938066,30356.48,78,100,2023-02-21T15:37:17.356-08:00,698715437.4,0,-1.029999,99.29601,1,0.51,0
2023-02-21T15:37:18.553-08:00,1677022638,34.0643294,-118.449937,117.457,1.16,0.59,327.9424438,27.21271846,6,14.26776723,-9999,339645.412,-0.138916016,0.697341919,0.658340454,339645.387,-2.731198497,-2.876372742,-0.917555472,-0.332619965,-0.179670081,0.177145198,-0.020700172,0.084696174,0.121342778,XArbitraryZVertical,-0.882008872,-0.123759874,-0.026618654,0.453910935,-0.159307703,0.794118285,0.586512327,0,0,0,-1,-1,339644.216,unknown,2,2023-02-21T15:37:17.356-08:00,2023-02-14T17:43:35.488-08:00,40902,1.273604,0.6718748,1.938066,30356.48,78,100,2023-02-21T15:37:17.356-08:00,698715437.4,0,-1.029999,99.29601,1,0.51,0
2023-02-21T15:37:18.588-08:00,1677022638,34.0643294,-118.449937,117.457,1.16,0.59,327.9424438,27.21271846,6,14.26776723,-9999,339645.4471,-0.154510498,0.887023926,0.564361572,339645.417,-2.745066985,-2.889211645,-0.905074341,-0.534997582,0.058252998,0.187343761,0.012809321,-0.087038875,0.073829353,XArbitraryZVertical,-0.885550807,-0.121779122,-0.02553141,0.447568593,-0.154227749,0.786471069,0.598060787,0,0,0,-1,-1,339644.216,unknown,2,2023-02-21T15:37:17.356-08:00,2023-02-14T17:43:35.488-08:00,40902,1.273604,0.6718748,1.938066,30356.48,78,100,2023-02-21T15:37:17.356-08:00,698715437.4,0,-1.029999,99.29601,1,0.51,0
2023-02-21T15:37:18.623-08:00,1677022638,34.0643294,-118.449937,117.457,1.16,0.59,327.9424438,27.21271846,6,14.26776723,-9999,339645.4821,-0.146957397,0.688903809,0.660690308,339645.4771,-2.761335231,-2.897188555,-0.91073141,0.26907745,0.058204662,0.19645372,0.014309615,0.011988461,0.069116592,XArbitraryZVertical,-0.88547108,-0.115818396,-0.02500979,0.449334616,-0.148373321,0.789952457,0.594945848,0,0,0,-1,-1,339644.216,unknown,2,2023-02-21T15:37:17.356-08:00,2023-02-14T17:43:35.488-08:00,40902,1.273604,0.6718748,1.938066,30356.48,78,100,2023-02-21T15:37:17.356-08:00,698715437.4,0,-1.029999,99.29601,1,0.51,0
