loggingTime(txt),locationTimestamp_since1970(s),locationLatitude(WGS84),locationLongitude(WGS84),locationAltitude(m),locationSpeed(m/s),locationSpeedAccuracy(m/s),locationCourse(°),locationCourseAccuracy(°),locationVerticalAccuracy(m),locationHorizontalAccuracy(m),locationFloor(Z),accelerometerTimestamp_sinceReboot(s),accelerometerAccelerationX(G),accelerometerAccelerationY(G),accelerometerAccelerationZ(G),motionTimestamp_sinceReboot(s),motionYaw(rad),motionRoll(rad),motionPitch(rad),motionRotationRateX(rad/s),motionRotationRateY(rad/s),motionRotationRateZ(rad/s),motionUserAccelerationX(G),motionUserAccelerationY(G),motionUserAccelerationZ(G),motionAttitudeReferenceFrame(txt),motionQuaternionX(R),motionQuaternionY(R),motionQuaternionZ(R),motionQuaternionW(R),motionGravityX(G),motionGravityY(G),motionGravityZ(G),motionMagneticFieldX(µT),motionMagneticFieldY(µT),motionMagneticFieldZ(µT),motionHeading(°),motionMagneticFieldCalibrationAccuracy(Z),activityTimestamp_sinceReboot(s),activity(txt),activityActivityConfidence(Z),activityActivityStartDate(txt),pedometerStartDate(txt),pedometerNumberofSteps(N),pedometerAverageActivePace(s/m),pedometerCurrentPace(s/m),pedometerCurrentCadence(steps/s),pedometerDistance(m),pedometerFloorAscended(N),pedometerFloorDescended(N),pedometerEndDate(txt),altimeterTimestamp_sinceReboot(s),altimeterReset(bool),altimeterRelativeAltitude(m),altimeterPressure(kPa),batteryState(N),batteryLevel(R),label
2023-02-22T18:09:14.134-08:00,1677118153,34.05930052,-118.448817,97.88905,1.11,0.7,317.8124955,38.56641043,3.593520605,4.572870728,-9999,362771.2956,-0.203826904,-0.092269897,-1.053329468,362771.2756,0.057042993,-0.198241519,0.102081229,0.396697044,0.016518299,-0.162353575,-0.039065003,5.85E-06,-0.046738327,XArbitraryZVertical,0.053565772,-0.097341674,0.023294038,0.9935355,-0.195920348,-0.101904027,-0.975310624,0,0,0,-1,-1,362768.6732,unknown,2,2023-02-22T18:09:11.511-08:00,2023-02-22T18:09:11.156-08:00,5,0.9831617,0.8229022,1.776166,3.420883,0,0,2023-02-22T18:09:11.511-08:00,0,0,0,0,1,0.2,0
2023-02-22T18:09:14.168-08:00,1677118153,34.05930052,-118.448817,97.88905,1.11,0.7,317.8124955,38.56641043,3.593520605,4.572870728,-9999,362771.3307,-0.14666748,-0.240447998,-1.117874146,362771.3056,0.056523682,-0.199823602,0.112220587,0.34370178,-0.029276952,-0.289620936,-0.006578997,0.019715309,-0.079392791,XArbitraryZVertical,0.058593078,-0.097972074,0.022481317,0.993208429,-0.197247878,-0.111985192,-0.973936677,0,0,0,-1,-1,362768.6732,unknown,2,2023-02-22T18:09:11.511-08:00,2023-02-22T18:09:11.156-08:00,9,0.9103349,0.8229022,1.776166,6.15759,0,0,2023-02-22T18:09:14.073-08:00,0,0,0,0,1,0.2,0
2023-02-22T18:09:14.203-08:00,1677118153,34.05930052,-118.448817,97.88905,1.11,0.7,317.8124955,38.56641043,3.593520605,4.572870728,-9999,362771.3657,-0.188476563,-0.248748779,-1.22505188,362771.3357,0.046348955,-0.195342064,0.134477544,0.411188155,-0.05335559,-0.342999667,-0.013872862,-0.035818771,-0.150418758,XArbitraryZVertical,0.06910451,-0.095719842,0.016459705,0.992870304,-0.192349657,-0.134072587,-0.972124577,0,0,0,-1,-1,362768.6732,unknown,2,2023-02-22T18:09:11.511-08:00,2023-02-22T18:09:11.156-08:00,9,0.9103349,0.8229022,1.776166,6.15759,0,0,2023-02-22T18:09:14.073-08:00,0,0,0,0,1,0.2,0
2023-02-22T18:09:14.238-08:00,1677118153,34.05930052,-118.448817,97.88905,1.11,0.7,317.8124955,38.56641043,3.593520605,4.572870728,-9999,362771.4007,-0.191467285,-0.311630249,-1.160812378,362771.3957,0.02456312,-0.188204454,0.166664628,0.623886228,0.263715655,-0.473419219,-0.16800563,0.03585875,-0.216801584,XArbitraryZVertical,0.08401137,-0.092612561,0.004363947,0.992142101,-0.184502885,-0.165894121,-0.968730032,0,0,0,-1,-1,362768.6732,unknown,2,2023-02-22T18:09:11.511-08:00,2023-02-22T18:09:11.156-08:00,9,0.9103349,0.8229022,1.776166,6.15759,0,0,2023-02-22T18:09:14.073-08:00,0,0,0,0,1,0.2,0
2023-02-22T18:09:14.273-08:00,1677118154,34.05930751,-118.4488229,97.85378,1.03,0.7,313.945308,40.08262022,3.593520635,4.572870705,-9999,362771.4358,-0.09034729,-0.269485474,-1.297225952,362771.4257,0.018482524,-0.180177655,0.179388643,0.390381098,0.22924608,-0.131448165,0.014692307,-0.16811429,-0.243874192,XArbitraryZVertical,0.090035097,-0.088777122,0.001108288,0.991973395,-0.176328659,-0.178428054,-0.968024611,0,0,0,-1,-1,362768.6732,unknown,2,2023-02-22T18:09:11.511-08:00,2023-02-22T18:09:11.156-08:00,9,0.9103349,0.8229022,1.776166,6.15759,0,0,2023-02-22T18:09:14.073-08:00,0,0,0,0,1,0.2,0
2023-02-22T18:09:14.308-08:00,1677118154,34.05930751,-118.4488229,97.85378,1.03,0.7,313.945308,40.08262022,3.593520635,4.572870705,-9999,362771.4708,-0.096572876,-0.097381592,-1.075622559,362771.4558,0.018349719,-0.175185699,0.195092015,0.615175188,0.144726738,-0.141355157,0.059549749,-0.025259405,-0.296619892,XArbitraryZVertical,0.097812713,-0.086171227,0.000576584,0.991467107,-0.170984671,-0.193856806,-0.966014385,0,0,0,-1,-1,362768.6732,unknown,2,2023-02-22T18:09:11.511-08:00,2023-02-22T18:09:11.156-08:00,9,0.9103349,0.8229022,1.776166,6.15759,0,0,2023-02-22T18:09:14.073-08:00,0,0,0,0,1,0.2,0
2023-02-22T18:09:14.344-08:00,1677118154,34.05930751,-118.4488229,97.85378,1.03,0.7,313.945308,40.08262022,3.593520635,4.572870705,-9999,362771.5058,-0.033782959,-0.130691528,-0.89151001,362771.4858,0.016932221,-0.17023234,0.223135325,1.215473294,0.183395624,-0.252241105,0.062519729,0.120198831,-0.091088116,XArbitraryZVertical,0.111644566,-0.083542694,-0.00108183,0.990229757,-0.165211365,-0.221288294,-0.961112201,0,0,0,-1,-1,362768.6732,unknown,2,2023-02-22T18:09:11.511-08:00,2023-02-22T18:09:11.156-08:00,9,0.9103349,0.8229022,1.776166,6.15759,0,0,2023-02-22T18:09:14.073-08:00,0,0,0,0,1,0.2,0
2023-02-22T18:09:14.379-08:00,1677118154,34.05930751,-118.4488229,97.85378,1.03,0.7,313.945308,40.08262022,3.593520635,4.572870705,-9999,362771.5408,-0.054107666,-0.193099976,-0.861480713,362771.5158,0.014451908,-0.161910191,0.263568886,1.325857162,0.357547462,-0.388393462,0.121853799,0.129836321,0.061329126,XArbitraryZVertical,0.131548803,-0.079217007,-0.003486098,0.988133375,-0.155636758,-0.260527849,-0.952839136,0,0,0,-1,-1,362768.6732,unknown,2,2023-02-22T18:09:11.511-08:00,2023-02-22T18:09:11.156-08:00,9,0.9103349,0.8229022,1.776166,6.15759,0,0,2023-02-22T18:09:14.073-08:00,0,0,0,0,1,0.2,0
2023-02-22T18:09:14.414-08:00,1677118154,34.05930751,-118.4488229,97.85378,1.03,0.7,313.945308,40.08262022,3.593520635,4.572870705,-9999,362771.5759,-0.020462036,-0.276687622,-0.883972168,362771.5459,0.007464255,-0.144510182,0.30510593,1.373747349,0.637963951,-0.483676732,0.073391914,0.129404217,0.099878967,XArbitraryZVertical,0.151830675,-0.070787662,-0.007291245,0.985841475,-0.137356758,-0.300394207,-0.943873107,0,0,0,-1,-1,362768.6732,unknown,2,2023-02-22T18:09:11.511-08:00,2023-02-22T18:09:11.156-08:00,9,0.9103349,0.8229022,1.776166,6.15759,0,0,2023-02-22T18:09:14.073-08:00,0,0,0,0,1,0.2,0
2023-02-22T18:09:14.449-08:00,1677118154,34.05930751,-118.4488229,97.85378,1.03,0.7,313.945308,40.08262022,3.593520635,4.572870705,-9999,362771.6109,-0.070510864,-0.378585815,-0.700958252,362771.6059,-0.00132002,-0.105592276,0.387283912,1.00278759,0.526079178,-0.286598355,0.077326685,0.057637036,0.177876413,XArbitraryZVertical,0.192131684,-0.051912125,-0.010801824,0.979935694,-0.097590342,-0.377674878,-0.920781076,0,0,0,-1,-1,362768.6732,unknown,2,2023-02-22T18:09:11.511-08:00,2023-02-22T18:09:11.156-08:00,9,0.9103349,0.8229022,1.776166,6.15759,0,0,2023-02-22T18:09:14.073-08:00,0,0,0,0,1,0.2,0
2023-02-22T18:09:14.484-08:00,1677118154,34.05930751,-118.4488229,97.85378,1.03,0.7,313.945308,40.08262022,3.593520635,4.572870705,-9999,362771.6459,-0.11505127,-0.341598511,-0.804611206,362771.6359,-0.006260556,-0.086928074,0.413637927,0.748067021,0.558709383,-0.187386632,-0.036119074,-0.030063748,0.164312959,XArbitraryZVertical,0.205019629,-0.043166362,-0.011983054,0.977732167,-0.079496756,-0.401943088,-0.912207246,0,0,0,-1,-1,362768.6732,unknown,2,2023-02-22T18:09:11.511-08:00,2023-02-22T18:09:11.156-08:00,9,0.9103349,0.8229022,1.776166,6.15759,0,0,2023-02-22T18:09:14.073-08:00,0,0,0,0,1,0.2,0
2023-02-22T18:09:14.519-08:00,1677118154,34.05930751,-118.4488229,97.85378,1.03,0.7,313.945308,40.08262022,3.593520635,4.572870705,-9999,362771.681,-0.032165527,-0.39604187,-0.826477051,362771.666,-0.013101856,-0.067325333,0.436888119,0.700595319,0.526133597,-0.270815492,-0.023898542,0.073924541,0.070478201,XArbitraryZVertical,0.216368254,-0.034274632,-0.013685114,0.975614062,-0.060955577,-0.423121929,-0.904020071,0,0,0,-1,-1,362768.6732,unknown,2,2023-02-22T18:09:11.511-08:00,2023-02-22T18:09:11.156-08:00,9,0.9103349,0.8229022,1.776166,6.15759,0,0,2023-02-22T18:09:14.073-08:00,0,0,0,0,1,0.2,0
2023-02-22T18:09:14.554-08:00,1677118154,34.05930751,-118.4488229,97.85378,1.03,0.7,313.945308,40.08262022,3.593520635,4.572870705,-9999,362771.716,-0.069778442,-0.41267395,-0.779327393,362771.696,-0.01971752,-0.052212758,0.451831354,0.343934387,0.275505453,-0.183521748,0.010590136,0.058638394,0.068375349,XArbitraryZVertical,0.223660861,-0.027646438,-0.015451665,0.974152277,-0.046951815,-0.436613828,-0.898423016,0,0,0,-1,-1,362768.6732,unknown,2,2023-02-22T18:09:11.511-08:00,2023-02-22T18:09:11.156-08:00,9,0.9103349,0.8229022,1.776166,6.15759,0,0,2023-02-22T18:09:14.073-08:00,0,0,0,0,1,0.2,0
2023-02-22T18:09:14.589-08:00,1677118154,34.05930751,-118.4488229,97.85378,1.03,0.7,313.945308,40.08262022,3.593520635,4.572870705,-9999,362771.751,-0.059127808,-0.470535278,-0.797302246,362771.726,-0.023022745,-0.044984592,0.462269769,0.336895823,0.120950967,-0.015673062,-0.029528886,0.033306837,0.114809692,XArbitraryZVertical,0.22875726,-0.024527191,-0.016353983,0.973037006,-0.040249545,-0.445980787,-0.894137084,0,0,0,-1,-1,362768.6732,unknown,2,2023-02-22T18:09:11.511-08:00,2023-02-22T18:09:11.156-08:00,9,0.9103349,0.8229022,1.776166,6.15759,0,0,2023-02-22T18:09:14.073-08:00,0,0,0,0,1,0.2,0
2023-02-22T18:09:14.624-08:00,1677118154,34.05930751,-118.4488229,97.85378,1.03,0.7,313.945308,40.08262022,3.593520635,4.572870705,-9999,362771.7861,0.003479004,-0.521774292,-0.769119263,362771.756,-0.024379584,-0.042385251,0.473861074,0.487295806,0.027594585,-0.097036988,-0.04560931,0.003047705,0.10191977,XArbitraryZVertical,0.234398773,-0.023457968,-0.016819882,0.971711978,-0.037703659,-0.456325322,-0.889013886,0,0,0,-1,-1,362768.6732,unknown,2,2023-02-22T18:09:11.511-08:00,2023-02-22T18:09:11.156-08:00,9,0.9103349,0.8229022,1.776166,6.15759,0,0,2023-02-22T18:09:14.073-08:00,0,0,0,0,1,0.2,0
2023-02-22T18:09:14.659-08:00,1677118154,34.05930751,-118.4488229,97.85378,1.03,0.7,313.945308,40.08262022,3.593520635,4.572870705,-9999,362771.8211,0.017303467,-0.477859497,-0.769821167,362771.8161,-0.03386721,-0.043171824,0.508362029,0.530286372,-0.143160254,-0.219763771,0.044490904,0.013510942,0.131365538,XArbitraryZVertical,0.251004447,-0.025144535,-0.021811556,0.967413496,-0.037700731,-0.486747056,-0.872729063,0,0,0,-1,-1,362768.6732,unknown,2,2023-02-22T18:09:11.511-08:00,2023-02-22T18:09:11.156-08:00,9,0.9103349,0.8229022,1.776166,6.15759,0,0,2023-02-22T18:09:14.073-08:00,0,0,0,0,1,0.2,0
2023-02-22T18:09:14.694-08:00,1677118154,34.05930751,-118.4488229,97.85378,1.03,0.7,313.945308,40.08262022,3.593520635,4.572870705,-9999,362771.8561,-0.049713135,-0.605392456,-0.899520874,362771.8461,-0.037578055,-0.045407053,0.524997822,0.575257778,-0.152428046,0.000565263,0.021044139,-0.011194229,0.022590518,XArbitraryZVertical,0.258970106,-0.026794164,-0.024029556,0.965214525,-0.039278358,-0.501211107,-0.86443311,0,0,0,-1,-1,362768.6732,unknown,2,2023-02-22T18:09:11.511-08:00,2023-02-22T18:09:11.156-08:00,9,0.9103349,0.8229022,1.776166,6.15759,0,0,2023-02-22T18:09:14.073-08:00,0,0,0,0,1,0.2,0
2023-02-22T18:09:14.729-08:00,1677118154,34.05930751,-118.4488229,97.85378,1.03,0.7,313.945308,40.08262022,3.593520635,4.572870705,-9999,362771.8912,0.067672729,-0.580490112,-0.697570801,362771.8762,-0.036295593,-0.052561297,0.542804957,0.468617082,-0.318322331,-0.003028073,0.015505612,-0.088806868,-0.050299585,XArbitraryZVertical,0.267486723,-0.030174749,-0.024519933,0.962776827,-0.044985585,-0.516539812,-0.855080664,0,0,0,-1,-1,362768.6732,unknown,2,2023-02-22T18:09:11.511-08:00,2023-02-22T18:09:11.156-08:00,9,0.9103349,0.8229022,1.776166,6.15759,0,0,2023-02-22T18:09:14.073-08:00,0,0,0,0,1,0.2,0
2023-02-22T18:09:14.764-08:00,1677118154,34.05930751,-118.4488229,97.85378,1.03,0.7,313.945308,40.08262022,3.593520635,4.572870705,-9999,362771.9262,-0.079284668,-0.646377563,-0.891067505,362771.9062,-0.034354237,-0.064652862,0.543960617,-0.28619653,-0.364879012,0.036640543,0.108017102,-0.042300701,0.168682039,XArbitraryZVertical,0.26792477,-0.035739936,-0.025217606,0.962446388,-0.055282701,-0.517529011,-0.853877962,0,0,0,-1,-1,362768.6732,unknown,2,2023-02-22T18:09:11.511-08:00,2023-02-22T18:09:11.156-08:00,9,0.9103349,0.8229022,1.776166,6.15759,0,0,2023-02-22T18:09:14.073-08:00,0,0,0,0,1,0.2,0
2023-02-22T18:09:14.799-08:00,1677118154,34.05930751,-118.4488229,97.85378,1.03,0.7,313.945308,40.08262022,3.593520635,4.572870705,-9999,362771.9612,-0.025802612,-0.54309082,-0.929962158,362771.9362,-0.035792852,-0.07428902,0.528121161,-0.906018019,-0.372755975,0.015202163,-0.015176103,-0.142466187,-0.029694498,XArbitraryZVertical,0.260139176,-0.040510564,-0.02695429,0.964344385,-0.064108536,-0.503911376,-0.861373007,0,0,0,-1,-1,362768.6732,unknown,2,2023-02-22T18:09:11.511-08:00,2023-02-22T18:09:11.156-08:00,9,0.9103349,0.8229022,1.776166,6.15759,0,0,2023-02-22T18:09:14.073-08:00,0,0,0,0,1,0.2,0
2023-02-22T18:09:14.834-08:00,1677118154,34.05930751,-118.4488229,97.85378,1.03,0.7,313.945308,40.08262022,3.593520635,4.572870705,-9999,362771.9963,-0.09085083,-0.455795288,-0.889953613,362771.9662,-0.034275109,-0.086446086,0.49618057,-1.217551231,-0.403871387,0.169436529,0.023390673,-0.054752558,-0.069280565,XArbitraryZVertical,0.244570014,-0.04608454,-0.027205223,0.968153653,-0.075926669,-0.476070195,-0.876123428,0,0,0,-1,-1,362768.6732,unknown,2,2023-02-22T18:09:11.511-08:00,2023-02-22T18:09:11.156-08:00,9,0.9103349,0.8229022,1.776166,6.15759,0,0,2023-02-22T18:09:14.073-08:00,0,0,0,0,1,0.2,0
2023-02-22T18:09:14.869-08:00,1677118154,34.05930751,-118.4488229,97.85378,1.03,0.7,313.945308,40.08262022,3.593520635,4.572870705,-9999,362772.0313,0.003372192,-0.742401123,-0.916992188,362772.0263,-0.010153185,-0.117795868,0.418997225,-1.691587329,-0.410461903,0.957116663,0.03738074,-0.242859364,-0.087156832,XArbitraryZVertical,0.207313917,-0.058630046,-0.017198698,0.976364517,-0.107357532,-0.406844616,-0.907166898,0,0,0,-1,-1,362768.6732,unknown,2,2023-02-22T18:09:11.511-08:00,2023-02-22T18:09:11.156-08:00,9,0.9103349,0.8229022,1.776166,6.15759,0,0,2023-02-22T18:09:14.073-08:00,0,0,0,0,1,0.2,0
2023-02-22T18:09:14.908-08:00,1677118154,34.05930751,-118.4488229,97.85378,1.03,0.7,313.945308,40.08262022,3.593520635,4.572870705,-9999,362772.0663,0.087051392,-0.648880005,-0.707977295,362772.0563,0.01632658,-0.145382869,0.332423856,-3.84758687,-0.796955228,1.444945931,0.200798213,-0.383457959,0.129038274,XArbitraryZVertical,0.165589949,-0.070277118,-0.0039862,0.983679475,-0.136940166,-0.326335132,-0.935282171,0,0,0,-1,-1,362768.6732,unknown,2,2023-02-22T18:09:11.511-08:00,2023-02-22T18:09:11.156-08:00,9,0.9103349,0.8229022,1.776166,6.15759,0,0,2023-02-22T18:09:14.073-08:00,0,0,0,0,1,0.2,0
2023-02-22T18:09:14.939-08:00,1677118154,34.05930751,-118.4488229,97.85378,1.03,0.7,313.945308,40.08262022,3.593520635,4.572870705,-9999,362772.1014,0.131393433,-0.648193359,-0.674667358,362772.0863,0.045373124,-0.182689872,0.172907002,-6.577619076,-1.300412297,2.196255445,0.297786534,-0.608974397,0.236273646,XArbitraryZVertical,0.088025252,-0.088903337,0.014631409,0.992035151,-0.178966343,-0.172046721,-0.968695521,0,0,0,-1,-1,362768.6732,unknown,2,2023-02-22T18:09:11.511-08:00,2023-02-22T18:09:11.156-08:00,9,0.9103349,0.8229022,1.776166,6.15759,0,0,2023-02-22T18:09:14.073-08:00,0,0,0,0,1,0.2,0
2023-02-22T18:09:14.974-08:00,1677118154,34.05930751,-118.4488229,97.85378,1.03,0.7,313.945308,40.08262022,3.593520635,4.572870705,-9999,362772.1364,0.014801025,0.035842896,-0.128570557,362772.1164,0.062026075,-0.235708466,-0.095824074,-10.69314003,-2.159872293,2.534435511,0.358177722,-0.658406377,0.338432789,XArbitraryZVertical,-0.043896816,-0.118864979,0.036386344,0.991272013,-0.232460558,0.095677495,-0.967888355,0,0,0,-1,-1,362768.6732,unknown,2,2023-02-22T18:09:11.511-08:00,2023-02-22T18:09:11.156-08:00,9,0.9103349,0.8229022,1.776166,6.15759,0,0,2023-02-22T18:09:14.073-08:00,0,0,0,0,1,0.2,0
2023-02-22T18:09:15.009-08:00,1677118154,34.05930751,-118.4488229,97.85378,1.03,0.7,313.945308,40.08262022,3.593520635,4.572870705,-9999,362772.1714,-0.000656128,1.045776367,0.450714111,362772.1464,0.02896894,-0.325813063,-0.474560711,-14.01146698,-3.078003883,2.166590214,0.299509406,-0.421104848,0.714127421,XArbitraryZVertical,-0.229640251,-0.160985583,0.052011412,0.958459089,-0.284708351,0.456947744,-0.842697978,0,0,0,-1,-1,362768.6732,unknown,2,2023-02-22T18:09:11.511-08:00,2023-02-22T18:09:11.156-08:00,9,0.9103349,0.8229022,1.776166,6.15759,0,0,2023-02-22T18:09:14.073-08:00,0,0,0,0,1,0.2,0
2023-02-22T18:09:15.045-08:00,1677118154,34.05930751,-118.4488229,97.85378,1.03,0.7,313.945308,40.08262022,3.593520635,4.572870705,-9999,362772.2065,-0.44354248,1.631149292,0.600463867,362772.1764,-0.159961136,-0.553044286,-0.882048974,-14.27952957,-3.600143671,0.279117554,0.359975666,0.10495609,0.906487346,XArbitraryZVertical,-0.429062312,-0.21329017,0.04666107,0.876490489,-0.333852589,0.772042751,-0.540825665,0,0,0,-1,-1,362768.6732,unknown,2,2023-02-22T18:09:11.511-08:00,2023-02-22T18:09:11.156-08:00,9,0.9103349,0.8229022,1.776166,6.15759,0,0,2023-02-22T18:09:14.073-08:00,0,0,0,0,1,0.2,0
2023-02-22T18:09:15.082-08:00,1677118154,34.05930751,-118.4488229,97.85378,1.03,0.7,313.945308,40.08262022,3.593520635,4.572870705,-9999,362772.2415,-0.666061401,1.043792725,0.596710205,362772.2365,-1.21980322,-1.660864879,-1.12804549,-6.121848583,-1.886712193,-1.316757441,-0.157950342,0.316943467,0.524940968,XArbitraryZVertical,-0.652945384,-0.304844449,-0.003037994,0.693341897,-0.426690131,0.903576553,0.038535625,0,0,0,-1,-1,362768.6732,unknown,2,2023-02-22T18:09:11.511-08:00,2023-02-22T18:09:11.156-08:00,9,0.9103349,0.8229022,1.776166,6.15759,0,0,2023-02-22T18:09:14.073-08:00,0,0,0,0,1,0.2,0
2023-02-22T18:09:15.114-08:00,1677118154,34.05930751,-118.4488229,97.85378,1.03,0.7,313.945308,40.08262022,3.593520635,4.572870705,-9999,362772.2765,-0.651290894,1.01361084,0.414215088,362772.2665,-1.53126685,-1.982539936,-1.053634871,-4.641860008,-1.051033258,-1.044809103,-0.252380908,0.16153568,0.366935372,XArbitraryZVertical,-0.699727023,-0.330630397,-0.024751879,0.632813594,-0.453093946,0.869226098,0.197868735,0,0,0,-1,-1,362768.6732,unknown,2,2023-02-22T18:09:11.511-08:00,2023-02-22T18:09:11.156-08:00,9,0.9103349,0.8229022,1.776166,6.15759,0,0,2023-02-22T18:09:14.073-08:00,0,0,0,0,1,0.2,0
2023-02-22T18:09:15.149-08:00,1677118154,34.05930751,-118.4488229,97.85378,1.03,0.7,313.945308,40.08262022,3.593520635,4.572870705,-9999,362772.3116,-0.580413818,0.92779541,0.278594971,362772.2965,-1.710427326,-2.156761741,-0.970884681,-3.648778915,-0.465605944,-0.801366746,-0.161570728,0.247414112,0.027695626,XArbitraryZVertical,-0.732930939,-0.344843195,-0.045825591,0.5846327,-0.470387191,0.825385511,0.312209189,0,0,0,-1,-1,362768.6732,unknown,2,2023-02-22T18:09:11.511-08:00,2023-02-22T18:09:11.156-08:00,9,0.9103349,0.8229022,1.776166,6.15759,0,0,2023-02-22T18:09:14.073-08:00,0,0,0,0,1,0.2,0
2023-02-22T18:09:15.184-08:00,1677118155,34.05931583,-118.4488294,97.52437,1.08,0.7,315.7031204,38.6331687,3.593520666,4.57287068,-9999,362772.3466,-0.676361084,0.913146973,0.48677063,362772.3266,-1.818264081,-2.252153705,-0.900509767,-2.513264894,-0.038217317,-0.48966825,-0.125938475,0.172945023,-0.066057622,XArbitraryZVertical,-0.756280764,-0.351672407,-0.064203241,0.547945115,-0.482505709,0.783643663,0.391268164,0,0,0,-1,-1,362768.6732,unknown,2,2023-02-22T18:09:11.511-08:00,2023-02-22T18:09:11.156-08:00,9,0.9103349,0.8229022,1.776166,6.15759,0,0,2023-02-22T18:09:14.073-08:00,0,0,0,0,1,0.2,0
2023-02-22T18:09:15.219-08:00,1677118155,34.05931583,-118.4488294,97.52437,1.08,0.7,315.7031204,38.6331687,3.593520666,4.57287068,-9999,362772.3816,-0.594192505,0.817825317,0.350326538,362772.3566,-1.877335901,-2.290172371,-0.855358429,-1.315193653,0.457160741,-0.211360574,-0.182945907,0.158340871,0.05455634,XArbitraryZVertical,-0.769788825,-0.351471576,-0.079968905,0.526780621,-0.493415177,0.754806101,0.4322142,0,0,0,-1,-1,362768.6732,unknown,2,2023-02-22T18:09:11.511-08:00,2023-02-22T18:09:11.156-08:00,9,0.9103349,0.8229022,1.776166,6.15759,0,0,2023-02-22T18:09:14.073-08:00,0,0,0,0,1,0.2,0
2023-02-22T18:09:15.254-08:00,1677118155,34.05931583,-118.4488294,97.52437,1.08,0.7,315.7031204,38.6331687,3.593520666,4.57287068,-9999,362772.4166,-0.612045288,0.726638794,0.150909424,362772.3866,-1.90201188,-2.291100688,-0.834165779,-0.534860969,0.6305511,-0.146827742,-0.108218789,0.105165124,-0.065348387,XArbitraryZVertical,-0.775011494,-0.347735504,-0.092675547,0.519469392,-0.504925132,0.740736365,0.443125606,0,0,0,-1,-1,362768.6732,unknown,2,2023-02-22T18:09:11.511-08:00,2023-02-22T18:09:11.156-08:00,9,0.9103349,0.8229022,1.776166,6.15759,0,0,2023-02-22T18:09:14.073-08:00,0,0,0,0,1,0.2,0
2023-02-22T18:09:15.289-08:00,1677118155,34.05931583,-118.4488294,97.52437,1.08,0.7,315.7031204,38.6331687,3.593520666,4.57287068,-9999,362772.4517,-0.622299194,0.804092407,0.228515625,362772.4467,-1.882512292,-2.247193731,-0.836541113,0.579614282,0.315868646,-0.134524688,-0.115012467,0.113657534,-0.262191474,XArbitraryZVertical,-0.769400602,-0.343131684,-0.103778282,0.528690271,-0.522514939,0.742330015,0.419433266,0,0,0,-1,-1,362768.6732,unknown,2,2023-02-22T18:09:11.511-08:00,2023-02-22T18:09:11.156-08:00,9,0.9103349,0.8229022,1.776166,6.15759,0,0,2023-02-22T18:09:14.073-08:00,0,0,0,0,1,0.2,0
2023-02-22T18:09:15.324-08:00,1677118155,34.05931583,-118.4488294,97.52437,1.08,0.7,315.7031204,38.6331687,3.593520666,4.57287068,-9999,362772.4867,-0.588516235,0.748016357,0.387863159,362772.4767,-1.874335738,-2.233842698,-0.837617178,-0.193405017,0.206659734,-0.044944398,-0.092236221,-0.015984416,-0.11337465,XArbitraryZVertical,-0.767265167,-0.342444638,-0.106401664,0.531709216,-0.527438521,0.743050575,0.411928326,0,0,0,-1,-1,362768.6732,unknown,2,2023-02-22T18:09:11.511-08:00,2023-02-22T18:09:11.156-08:00,9,0.9103349,0.8229022,1.776166,6.15759,0,0,2023-02-22T18:09:14.073-08:00,0,0,0,0,1,0.2,0
2023-02-22T18:09:15.360-08:00,1677118155,34.05931583,-118.4488294,97.52437,1.08,0.7,315.7031204,38.6331687,3.593520666,4.57287068,-9999,362772.5217,-0.574203491,0.730819702,0.602310181,362772.5067,-1.878571412,-2.231744067,-0.834345927,0.013466991,0.172447175,0.000490195,-0.038507819,0.091799557,0.032483399,XArbitraryZVertical,-0.767969064,-0.341143277,-0.109361492,0.530928437,-0.530217826,0.740857363,0.412310451,0,0,0,-1,-1,362768.6732,unknown,2,2023-02-22T18:09:11.511-08:00,2023-02-22T18:09:11.156-08:00,9,0.9103349,0.8229022,1.776166,6.15759,0,0,2023-02-22T18:09:14.073-08:00,0,0,0,0,1,0.2,0
2023-02-22T18:09:15.399-08:00,1677118155,34.05931583,-118.4488294,97.52437,1.08,0.7,315.7031204,38.6331687,3.593520666,4.57287068,-9999,362772.5568,-0.770080566,0.787948608,0.485412598,362772.5368,-1.87923491,-2.225900569,-0.836666945,-0.116875298,0.22541739,0.098987371,-0.043698251,-0.023771048,0.22268796,XArbitraryZVertical,-0.76769457,-0.338708108,-0.111051785,0.532531172,-0.53125298,0.742414296,0.408156276,0,0,0,-1,-1,362768.6732,unknown,2,2023-02-22T18:09:11.511-08:00,2023-02-22T18:09:11.156-08:00,9,0.9103349,0.8229022,1.776166,6.15759,0,0,2023-02-22T18:09:14.073-08:00,0,0,0,0,1,0.2,0
2023-02-22T18:09:15.430-08:00,1677118155,34.05931583,-118.4488294,97.52437,1.08,0.7,315.7031204,38.6331687,3.593520666,4.57287068,-9999,362772.5918,-0.515762329,0.976989746,0.371109009,362772.5668,-1.888729399,-2.225658226,-0.836803305,-0.232940644,0.202256814,0.161461473,-0.23880893,0.045443058,0.077446759,XArbitraryZVertical,-0.769276106,-0.334958587,-0.113629157,0.532076689,-0.531271696,0.74250567,0.407965958,0,0,0,-1,-1,362768.6732,unknown,2,2023-02-22T18:09:11.511-08:00,2023-02-22T18:09:11.156-08:00,9,0.9103349,0.8229022,1.776166,6.15759,0,0,2023-02-22T18:09:14.073-08:00,0,0,0,0,1,0.2,0
2023-02-22T18:09:15.465-08:00,1677118155,34.05931583,-118.4488294,97.52437,1.08,0.7,315.7031204,38.6331687,3.593520666,4.57287068,-9999,362772.6268,-0.513015747,0.865158081,0.383239746,362772.5968,-1.899427183,-2.231809684,-0.836602226,-0.077427387,-0.066338636,0.131297544,0.004684567,0.2409513,-0.072725236,XArbitraryZVertical,-0.771417684,-0.332526222,-0.114164008,0.530384516,-0.528869808,0.742370963,0.411317855,0,0,0,-1,-1,362768.6732,unknown,2,2023-02-22T18:09:11.511-08:00,2023-02-22T18:09:11.156-08:00,9,0.9103349,0.8229022,1.776166,6.15759,0,0,2023-02-22T18:09:14.073-08:00,0,0,0,0,1,0.2,0
2023-02-22T18:09:15.500-08:00,1677118155,34.05931583,-118.4488294,97.52437,1.08,0.7,315.7031204,38.6331687,3.593520666,4.57287068,-9999,362772.6619,-0.449234009,0.748336792,0.467651367,362772.6569,-1.899859352,-2.235998731,-0.846843357,0.05897871,-0.035217598,0.182248816,0.056655228,-0.05186671,-0.009218246,XArbitraryZVertical,-0.771386547,-0.330712145,-0.109473108,0.532548506,-0.521132708,0.749193311,0.408815444,0,0,0,-1,-1,362768.6732,unknown,2,2023-02-22T18:09:11.511-08:00,2023-02-22T18:09:11.156-08:00,9,0.9103349,0.8229022,1.776166,6.15759,0,0,2023-02-22T18:09:14.073-08:00,0,0,0,0,1,0.2,0
2023-02-22T18:09:15.535-08:00,1677118155,34.05931583,-118.4488294,97.52437,1.08,0.7,315.7031204,38.6331687,3.593520666,4.57287068,-9999,362772.6969,-0.465332031,0.837905884,0.51776123,362772.6869,-1.901915428,-2.237597401,-0.852717099,0.044904701,0.035024803,0.149741769,0.051176012,0.042720914,0.11071974,XArbitraryZVertical,-0.771606248,-0.328760616,-0.107575026,0.533823913,-0.517011702,0.753070891,0.406919479,0,0,0,-1,-1,362768.6732,unknown,2,2023-02-22T18:09:11.511-08:00,2023-02-22T18:09:11.156-08:00,9,0.9103349,0.8229022,1.776166,6.15759,0,0,2023-02-22T18:09:14.073-08:00,0,0,0,0,1,0.2,0
2023-02-22T18:09:15.570-08:00,1677118155,34.05931583,-118.4488294,97.52437,1.08,0.7,315.7031204,38.6331687,3.593520666,4.57287068,-9999,362772.7319,-0.445678711,0.718658447,0.355331421,362772.7169,-1.907871951,-2.240871252,-0.853992429,-0.180641279,0.016244726,0.073790409,0.080551565,0.065792918,0.079001725,XArbitraryZVertical,-0.772711997,-0.326990445,-0.107503599,0.533325902,-0.514923573,0.753909349,0.408013165,0,0,0,-1,-1,362768.6732,unknown,2,2023-02-22T18:09:11.511-08:00,2023-02-22T18:09:11.156-08:00,9,0.9103349,0.8229022,1.776166,6.15759,0,0,2023-02-22T18:09:14.073-08:00,0,0,0,0,1,0.2,0
2023-02-22T18:09:15.605-08:00,1677118155,34.05931583,-118.4488294,97.52437,1.08,0.7,315.7031204,38.6331687,3.593520666,4.57287068,-9999,362772.767,-0.510574341,0.710205078,0.405639648,362772.747,-1.916784735,-2.24915636,-0.851988278,-0.131566152,-0.123581678,0.098551847,0.052205861,-0.059079051,-0.082966506,XArbitraryZVertical,-0.774689725,-0.326285366,-0.107290757,0.53092608,-0.512700915,0.752591133,0.413212627,0,0,0,-1,-1,362768.6732,unknown,2,2023-02-22T18:09:11.511-08:00,2023-02-22T18:09:11.156-08:00,9,0.9103349,0.8229022,1.776166,6.15759,0,0,2023-02-22T18:09:14.073-08:00,0,0,0,0,1,0.2,0
2023-02-22T18:09:15.640-08:00,1677118155,34.05931583,-118.4488294,97.52437,1.08,0.7,315.7031204,38.6331687,3.593520666,4.57287068,-9999,362772.802,-0.452926636,0.847732544,0.336639404,362772.777,-1.922679029,-2.257821287,-0.853987373,0.033647999,-0.092384018,0.116088204,-0.002637327,-0.043700814,-0.0110448,XArbitraryZVertical,-0.776028588,-0.325763593,-0.104877681,0.529772162,-0.507937133,0.753906012,0.416684568,0,0,0,-1,-1,362768.6732,unknown,2,2023-02-22T18:09:11.511-08:00,2023-02-22T18:09:11.156-08:00,9,0.9103349,0.8229022,1.776166,6.15759,0,0,2023-02-22T18:09:14.073-08:00,0,0,0,0,1,0.2,0
2023-02-22T18:09:15.675-08:00,1677118155,34.05931583,-118.4488294,97.52437,1.08,0.7,315.7031204,38.6331687,3.593520666,4.57287068,-9999,362772.837,-0.486465454,0.544799805,0.284469604,362772.807,-1.927283411,-2.264156237,-0.855517607,-0.088670664,-0.066750824,0.009360019,0.041005075,0.113574147,-0.04623121,XArbitraryZVertical,-0.77704162,-0.325245062,-0.103165792,0.528941299,-0.5043993,0.754910469,0.419156045,0,0,0,-1,-1,362768.6732,unknown,2,2023-02-22T18:09:11.511-08:00,2023-02-22T18:09:11.156-08:00,9,0.9103349,0.8229022,1.776166,6.15759,0,0,2023-02-22T18:09:14.073-08:00,0,0,0,0,1,0.2,0
2023-02-22T18:09:15.710-08:00,1677118155,34.05931583,-118.4488294,97.52437,1.08,0.7,315.7031204,38.6331687,3.593520666,4.57287068,-9999,362772.8721,-0.456100464,0.714508057,0.295288086,362772.8671,-1.935325911,-2.276454295,-0.857890991,0.028113471,-0.135596871,0.159440666,0.037971914,-0.116022944,-0.125152826,XArbitraryZVertical,-0.778864072,-0.324735019,-0.099777851,0.527221396,-0.497841269,0.756464899,0.424164146,0,0,0,-1,-1,362768.6732,unknown,2,2023-02-22T18:09:11.511-08:00,2023-02-22T18:09:11.156-08:00,9,0.9103349,0.8229022,1.776166,6.15759,0,0,2023-02-22T18:09:14.073-08:00,0,0,0,0,1,0.2,0
2023-02-22T18:09:15.745-08:00,1677118155,34.05931583,-118.4488294,97.52437,1.08,0.7,315.7031204,38.6331687,3.593520666,4.57287068,-9999,362772.9071,-0.434112549,0.711730957,0.316879272,362772.8971,-1.938834666,-2.28227869,-0.861708939,-0.047474232,-0.077369049,0.089745238,0.050284743,-0.000671029,-0.095348656,XArbitraryZVertical,-0.779535081,-0.323896222,-0.097266463,0.52721483,-0.493171036,0.758956432,0.425167412,0,0,0,-1,-1,362768.6732,unknown,2,2023-02-22T18:09:11.511-08:00,2023-02-22T18:09:11.156-08:00,9,0.9103349,0.8229022,1.776166,6.15759,0,0,2023-02-22T18:09:14.073-08:00,0,0,0,0,1,0.2,0
2023-02-22T18:09:15.780-08:00,1677118155,34.05931583,-118.4488294,97.52437,1.08,0.7,315.7031204,38.6331687,3.593520666,4.57287068,-9999,362772.9421,-0.460113525,0.616653442,0.298843384,362772.9271,-1.942560286,-2.285927341,-0.862485375,-0.142333686,-0.029708851,0.108487241,0.038397551,-0.122926116,-0.113436699,XArbitraryZVertical,-0.780275762,-0.323200459,-0.096588419,0.526670605,-0.491171569,0.759461761,0.426577598,0,0,0,-1,-1,362768.6732,unknown,2,2023-02-22T18:09:11.511-08:00,2023-02-22T18:09:11.156-08:00,9,0.9103349,0.8229022,1.776166,6.15759,0,0,2023-02-22T18:09:14.073-08:00,0,0,0,0,1,0.2,0
2023-02-22T18:09:15.815-08:00,1677118155,34.05931583,-118.4488294,97.52437,1.08,0.7,315.7031204,38.6331687,3.593520666,4.57287068,-9999,362772.9772,-0.50668335,0.862564087,0.288223267,362772.9571,-1.953252472,-2.294575831,-0.861514714,-0.220043287,-0.023823131,0.153079271,0.028482378,-0.122187555,-0.127067596,XArbitraryZVertical,-0.782466705,-0.321550231,-0.096314274,0.524475801,-0.488016069,0.758829951,0.431297392,0,0,0,-1,-1,362768.6732,unknown,2,2023-02-22T18:09:11.511-08:00,2023-02-22T18:09:11.156-08:00,9,0.9103349,0.8229022,1.776166,6.15759,0,0,2023-02-22T18:09:14.073-08:00,0,0,0,0,1,0.2,0
2023-02-22T18:09:15.850-08:00,1677118155,34.05931583,-118.4488294,97.52437,1.08,0.7,315.7031204,38.6331687,3.593520666,4.57287068,-9999,362773.0122,-0.521697998,0.669082642,0.303817749,362772.9872,-1.960121978,-2.299801837,-0.860784201,0.012160071,0.034606889,-0.023810152,-0.020514578,0.104210079,-0.145987779,XArbitraryZVertical,-0.783860266,-0.320419382,-0.096287816,0.523090003,-0.486168742,0.758353949,0.434210986,0,0,0,-1,-1,362768.6732,unknown,2,2023-02-22T18:09:11.511-08:00,2023-02-22T18:09:11.156-08:00,9,0.9103349,0.8229022,1.776166,6.15759,0,0,2023-02-22T18:09:14.073-08:00,0,0,0,0,1,0.2,0
2023-02-22T18:09:15.885-08:00,1677118155,34.05931583,-118.4488294,97.52437,1.08,0.7,315.7031204,38.6331687,3.593520666,4.57287068,-9999,362773.0472,-0.583862305,0.71484375,0.411026001,362773.0172,-1.955499901,-2.294838092,-0.860351568,-0.080118887,0.037862003,-0.063119441,-0.018622935,-0.038513064,-0.157290518,XArbitraryZVertical,-0.782902384,-0.32104332,-0.097152959,0.523981359,-0.488563985,0.758071899,0.432009906,0,0,0,-1,-1,362768.6732,unknown,2,2023-02-22T18:09:11.511-08:00,2023-02-22T18:09:11.156-08:00,9,0.9103349,0.8229022,1.776166,6.15759,0,0,2023-02-22T18:09:14.073-08:00,0,0,0,0,1,0.2,0
2023-02-22T18:09:15.920-08:00,1677118155,34.05931583,-118.4488294,97.52437,1.08,0.7,315.7031204,38.6331687,3.593520666,4.57287068,-9999,362773.0823,-0.550750732,0.884658813,0.32472229,362773.0773,-1.971136942,-2.303571263,-0.853212236,-0.181912363,0.024415039,0.013829602,-0.089555562,0.146856964,-0.054752707,XArbitraryZVertical,-0.786222533,-0.319043574,-0.099957707,0.519686374,-0.488783211,0.753396571,0.439869344,0,0,0,-1,-1,362768.6732,unknown,2,2023-02-22T18:09:11.511-08:00,2023-02-22T18:09:11.156-08:00,9,0.9103349,0.8229022,1.776166,6.15759,0,0,2023-02-22T18:09:14.073-08:00,0,0,0,0,1,0.2,0
2023-02-22T18:09:15.955-08:00,1677118155,34.05931583,-118.4488294,97.52437,1.08,0.7,315.7031204,38.6331687,3.593520666,4.57287068,-9999,362773.1173,-0.582000732,0.765213013,0.433364868,362773.1073,-1.980103158,-2.311609649,-0.84789802,-0.389136463,-0.127276361,0.034741879,-0.03679949,0.071718156,-0.134849489,XArbitraryZVertical,-0.788353007,-0.318966304,-0.100704767,0.516351382,-0.488179207,0.74989146,0.446479946,0,0,0,-1,-1,362768.6732,unknown,2,2023-02-22T18:09:11.511-08:00,2023-02-22T18:09:11.156-08:00,9,0.9103349,0.8229022,1.776166,6.15759,0,0,2023-02-22T18:09:14.073-08:00,0,0,0,0,1,0.2,0
2023-02-22T18:09:15.990-08:00,1677118155,34.05931583,-118.4488294,97.52437,1.08,0.7,315.7031204,38.6331687,3.593520666,4.57287068,-9999,362773.1523,-0.536102295,0.944000244,0.539550781,362773.1373,-2.000522194,-2.330974637,-0.837579807,-0.72412461,-0.173085526,0.135834873,-0.119178444,0.057771027,0.046076477,XArbitraryZVertical,-0.793186747,-0.318485362,-0.101338744,0.509070132,-0.485023856,0.743025541,0.461156279,0,0,0,-1,-1,362768.6732,unknown,2,2023-02-22T18:09:11.511-08:00,2023-02-22T18:09:11.156-08:00,9,0.9103349,0.8229022,1.776166,6.15759,0,0,2023-02-22T18:09:14.073-08:00,0,0,0,0,1,0.2,0
2023-02-22T18:09:16.026-08:00,1677118155,34.05931583,-118.4488294,97.52437,1.08,0.7,315.7031204,38.6331687,3.593520666,4.57287068,-9999,362773.1874,-0.548446655,0.916870117,0.489715576,362773.1673,-2.023602169,-2.354356724,-0.828133369,-0.35820958,-0.27244404,0.131353438,-0.057865769,0.210900545,0.049659431,XArbitraryZVertical,-0.798625301,-0.317567485,-0.100620739,0.501222595,-0.479060531,0.736670315,0.477302969,0,0,0,-1,-1,362768.6732,unknown,2,2023-02-22T18:09:11.511-08:00,2023-02-22T18:09:11.156-08:00,9,0.9103349,0.8229022,1.776166,6.15759,0,0,2023-02-22T18:09:14.073-08:00,0,0,0,0,1,0.2,0
2023-02-22T18:09:16.061-08:00,1677118155,34.05931583,-118.4488294,97.52437,1.08,0.7,315.7031204,38.6331687,3.593520666,4.57287068,-9999,362773.2224,-0.483215332,0.800354004,0.603713989,362773.1974,-2.032406378,-2.371634039,-0.82809487,-0.123501994,-0.400523454,0.116778888,-0.077684045,0.180225849,0.004187226,XArbitraryZVertical,-0.800876547,-0.318372404,-0.095922428,0.498030825,-0.470762581,0.736644328,0.485528469,0,0,0,-1,-1,362768.6732,unknown,2,2023-02-22T18:09:11.511-08:00,2023-02-22T18:09:11.156-08:00,9,0.9103349,0.8229022,1.776166,6.15759,0,0,2023-02-22T18:09:14.073-08:00,0,0,0,0,1,0.2,0
2023-02-22T18:09:16.096-08:00,1677118156,34.05932315,-118.4488344,97.86122,1.03,0.7,319.2187459,41.92325716,3.593520694,4.572870658,-9999,362773.2574,-0.440353394,0.753295898,0.567687988,362773.2274,-2.04397592,-2.39056293,-0.822622006,-0.481169641,-0.285149753,0.004106667,-0.037873238,0.092614114,0.119606107,XArbitraryZVertical,-0.803995463,-0.319745294,-0.092760273,0.492696452,-0.464232415,0.732932091,0.497291505,0,0,0,-1,-1,362768.6732,unknown,2,2023-02-22T18:09:11.511-08:00,2023-02-22T18:09:11.156-08:00,9,0.9103349,0.8229022,1.776166,6.15759,0,0,2023-02-22T18:09:14.073-08:00,0,0,0,0,1,0.2,0
2023-02-22T18:09:16.131-08:00,1677118156,34.05932315,-118.4488344,97.86122,1.03,0.7,319.2187459,41.92325716,3.593520694,4.572870658,-9999,362773.2924,-0.395080566,0.734924316,0.553466797,362773.2874,-2.054035333,-2.411604975,-0.813822838,0.076638132,-0.262492955,0.018670464,0.02031225,-0.029835165,0.047301054,XArbitraryZVertical,-0.807204505,-0.322937366,-0.089241842,0.485971499,-0.457949549,0.726917744,0.51173532,0,0,0,-1,-1,362768.6732,unknown,2,2023-02-22T18:09:11.511-08:00,2023-02-22T18:09:11.156-08:00,9,0.9103349,0.8229022,1.776166,6.15759,0,0,2023-02-22T18:09:14.073-08:00,0,0,0,0,1,0.2,0
2023-02-22T18:09:16.166-08:00,1677118156,34.05932315,-118.4488344,97.86122,1.03,0.7,319.2187459,41.92325716,3.593520694,4.572870658,-9999,362773.3275,-0.365310669,0.733184814,0.527206421,362773.3175,-2.053915496,-2.42191462,-0.814267888,-0.09793368,-0.44346121,-0.006513685,0.114744067,0.017588913,0.027728796,XArbitraryZVertical,-0.807601015,-0.325382426,-0.084925218,0.484453092,-0.452436417,0.727223277,0.516186237,0,0,0,-1,-1,362768.6732,unknown,2,2023-02-22T18:09:11.511-08:00,2023-02-22T18:09:11.156-08:00,9,0.9103349,0.8229022,1.776166,6.15759,0,0,2023-02-22T18:09:14.073-08:00,0,0,0,0,1,0.2,0
2023-02-22T18:09:16.201-08:00,1677118156,34.05932315,-118.4488344,97.86122,1.03,0.7,319.2187459,41.92325716,3.593520694,4.572870658,-9999,362773.3625,-0.391067505,0.630889893,0.513015747,362773.3475,-2.060042498,-2.440880924,-0.810164085,-0.296946019,-0.522113085,0.065192431,0.092129648,-0.053914011,-0.004641891,XArbitraryZVertical,-0.809696633,-0.328430245,-0.079886974,0.479732079,-0.444485486,0.724400282,0.526950121,0,0,0,-1,-1,362768.6732,unknown,2,2023-02-22T18:09:11.511-08:00,2023-02-22T18:09:11.156-08:00,9,0.9103349,0.8229022,1.776166,6.15759,0,0,2023-02-22T18:09:14.073-08:00,0,0,0,0,1,0.2,0
2023-02-22T18:09:16.236-08:00,1677118156,34.05932315,-118.4488344,97.86122,1.03,0.7,319.2187459,41.92325716,3.593520694,4.572870658,-9999,362773.3975,-0.393386841,0.624435425,0.458480835,362773.3775,-2.072990822,-2.465053605,-0.804111711,-0.313635796,-0.44170472,0.131409362,0.041671365,-0.086166322,-0.042474389,XArbitraryZVertical,-0.813244185,-0.330315133,-0.074849913,0.473205224,-0.434356213,0.720214665,0.540948391,0,0,0,-1,-1,362768.6732,unknown,2,2023-02-22T18:09:11.511-08:00,2023-02-22T18:09:11.156-08:00,9,0.9103349,0.8229022,1.776166,6.15759,0,0,2023-02-22T18:09:14.073-08:00,0,0,0,0,1,0.2,0
2023-02-22T18:09:16.271-08:00,1677118156,34.05932315,-118.4488344,97.86122,1.03,0.7,319.2187459,41.92325716,3.593520694,4.572870658,-9999,362773.4326,-0.375030518,0.649658203,0.498001099,362773.4076,-2.083705167,-2.484452911,-0.80170864,-0.10942319,-0.325931102,0.161271721,0.03145057,-0.094109833,-0.092160583,XArbitraryZVertical,-0.815917946,-0.331056863,-0.070134284,0.468786316,-0.4248375,0.718545437,0.550641477,0,0,0,-1,-1,362768.6732,unknown,2,2023-02-22T18:09:11.511-08:00,2023-02-22T18:09:11.156-08:00,9,0.9103349,0.8229022,1.776166,6.15759,0,0,2023-02-22T18:09:14.073-08:00,0,0,0,0,1,0.2,0
2023-02-22T18:09:16.306-08:00,1677118156,34.05932315,-118.4488344,97.86122,1.03,0.7,319.2187459,41.92325716,3.593520694,4.572870658,-9999,362773.4676,-0.367553711,0.672149658,0.396652222,362773.4376,-2.090311849,-2.497221838,-0.804184896,0.022216061,-0.203320593,0.174387425,0.036300153,-0.071354687,-0.05487144,XArbitraryZVertical,-0.817232172,-0.330802099,-0.065789924,0.467304373,-0.416701823,0.720265448,0.554596901,0,0,0,-1,-1,362768.6732,unknown,2,2023-02-22T18:09:11.511-08:00,2023-02-22T18:09:11.156-08:00,9,0.9103349,0.8229022,1.776166,6.15759,0,0,2023-02-22T18:09:14.073-08:00,0,0,0,0,1,0.2,0
2023-02-22T18:09:16.341-08:00,1677118156,34.05932315,-118.4488344,97.86122,1.03,0.7,319.2187459,41.92325716,3.593520694,4.572870658,-9999,362773.5026,-0.410705566,0.562683105,0.417098999,362773.4976,-2.099680487,-2.515027196,-0.807218306,-0.005237135,-0.235846579,0.058434322,0.032278866,-0.117141902,-0.175877929,XArbitraryZVertical,-0.819068844,-0.330460117,-0.059866662,0.465121762,-0.405478209,0.722366393,0.560155332,0,0,0,-1,-1,362768.6732,unknown,2,2023-02-22T18:09:11.511-08:00,2023-02-22T18:09:11.156-08:00,9,0.9103349,0.8229022,1.776166,6.15759,0,0,2023-02-22T18:09:14.073-08:00,0,0,0,0,1,0.2,0
2023-02-22T18:09:16.376-08:00,1677118156,34.05932315,-118.4488344,97.86122,1.03,0.7,319.2187459,41.92325716,3.593520694,4.572870658,-9999,362773.5377,-0.492935181,0.679382324,0.519363403,362773.5277,-2.101125698,-2.524373547,-0.808593448,0.050749168,-0.293600738,0.018991342,-0.061729968,-0.139027119,-0.091384649,XArbitraryZVertical,-0.81945188,-0.331743417,-0.056002728,0.46401365,-0.399650037,0.723316669,0.563110173,0,0,0,-1,-1,362768.6732,unknown,2,2023-02-22T18:09:11.511-08:00,2023-02-22T18:09:11.156-08:00,9,0.9103349,0.8229022,1.776166,6.15759,0,0,2023-02-22T18:09:14.073-08:00,0,0,0,0,1,0.2,0
2023-02-22T18:09:16.411-08:00,1677118156,34.05932315,-118.4488344,97.86122,1.03,0.7,319.2187459,41.92325716,3.593520694,4.572870658,-9999,362773.5727,-0.470733643,0.645187378,0.484970093,362773.5577,-2.097971796,-2.530793415,-0.808395779,-0.005134603,-0.279186368,-0.151514351,-0.10682106,-0.035420895,-0.074753284,XArbitraryZVertical,-0.819119396,-0.334565315,-0.052695224,0.462960667,-0.396108508,0.723180115,0.565781057,0,0,0,-1,-1,362768.6732,unknown,2,2023-02-22T18:09:11.511-08:00,2023-02-22T18:09:11.156-08:00,9,0.9103349,0.8229022,1.776166,6.15759,0,0,2023-02-22T18:09:14.073-08:00,0,0,0,0,1,0.2,0
2023-02-22T18:09:16.446-08:00,1677118156,34.05932315,-118.4488344,97.86122,1.03,0.7,319.2187459,41.92325716,3.593520694,4.572870658,-9999,362773.6077,-0.456298828,0.663284302,0.518554688,362773.5877,-2.092003265,-2.534418532,-0.804951343,-0.03499274,-0.2579014,-0.140578181,-0.070575207,-0.110567272,-0.095241666,XArbitraryZVertical,-0.818530023,-0.338580323,-0.050762743,0.461297342,-0.395474076,0.720796943,0.569256067,0,0,0,-1,-1,362768.6732,unknown,2,2023-02-22T18:09:11.511-08:00,2023-02-22T18:09:11.156-08:00,9,0.9103349,0.8229022,1.776166,6.15759,0,0,2023-02-22T18:09:14.073-08:00,0,0,0,0,1,0.2,0
2023-02-22T18:09:16.481-08:00,1677118156,34.05932315,-118.4488344,97.86122,1.03,0.7,319.2187459,41.92325716,3.593520694,4.572870658,-9999,362773.6428,-0.454696655,0.954238892,0.706558228,362773.6177,-2.088283873,-2.539638504,-0.804075917,0.104575224,-0.275696993,-0.042249314,-0.063444555,-0.056905508,-0.053277731,XArbitraryZVertical,-0.818107864,-0.341490459,-0.048007156,0.460194705,-0.392854273,0.720189869,0.571832418,0,0,0,-1,-1,362768.6732,unknown,2,2023-02-22T18:09:11.511-08:00,2023-02-22T18:09:11.156-08:00,9,0.9103349,0.8229022,1.776166,6.15759,0,0,2023-02-22T18:09:14.073-08:00,0,0,0,0,1,0.2,0
2023-02-22T18:09:16.516-08:00,1677118156,34.05932315,-118.4488344,97.86122,1.03,0.7,319.2187459,41.92325716,3.593520694,4.572870658,-9999,362773.6778,-0.428817749,0.793121338,0.53717041,362773.6478,-2.082696845,-2.543728685,-0.805538042,0.040380947,-0.233402058,-0.115096457,-0.069324821,0.227969527,0.110831976,XArbitraryZVertical,-0.817108458,-0.344406043,-0.044652724,0.460135243,-0.389918953,0.721203446,0.572563529,0,0,0,-1,-1,362768.6732,unknown,2,2023-02-22T18:09:11.511-08:00,2023-02-22T18:09:11.156-08:00,9,0.9103349,0.8229022,1.776166,6.15759,0,0,2023-02-22T18:09:14.073-08:00,0,0,0,0,1,0.2,0
2023-02-22T18:09:16.551-08:00,1677118156,34.05932315,-118.4488344,97.86122,1.03,0.7,319.2187459,41.92325716,3.593520694,4.572870658,-9999,362773.7128,-0.354568481,0.995956421,0.542984009,362773.7078,-2.085693717,-2.571566949,-0.806606077,0.259909779,-0.675578833,0.139899552,-0.006849319,0.27701968,-0.095897555,XArbitraryZVertical,-0.818071499,-0.349331103,-0.033669216,0.45562418,-0.373415053,0.721942902,0.582546413,0,0,0,-1,-1,362768.6732,unknown,2,2023-02-22T18:09:11.511-08:00,2023-02-22T18:09:11.156-08:00,9,0.9103349,0.8229022,1.776166,6.15759,0,0,2023-02-22T18:09:14.073-08:00,0,0,0,0,1,0.2,0
2023-02-22T18:09:16.586-08:00,1677118156,34.05932315,-118.4488344,97.86122,1.03,0.7,319.2187459,41.92325716,3.593520694,4.572870658,-9999,362773.7479,-0.175796509,0.924545288,0.667907715,362773.7379,-2.088768952,-2.597436758,-0.814989144,0.069767021,-0.857020199,0.313494325,0.049823403,0.17166537,-0.004383385,XArbitraryZVertical,-0.818127056,-0.352241169,-0.021530314,0.454016203,-0.355075449,0.727718174,0.586811423,0,0,0,-1,-1,362768.6732,unknown,2,2023-02-22T18:09:11.511-08:00,2023-02-22T18:09:11.156-08:00,9,0.9103349,0.8229022,1.776166,6.15759,0,0,2023-02-22T18:09:14.073-08:00,0,0,0,0,1,0.2,0
2023-02-22T18:09:16.621-08:00,1677118156,34.05932315,-118.4488344,97.86122,1.03,0.7,319.2187459,41.92325716,3.593520694,4.572870658,-9999,362773.7829,-0.147018433,0.897583008,0.673248291,362773.7679,-2.105698161,-2.636584212,-0.818834694,-0.212348178,-0.875360131,0.436109632,0.129278392,0.184978664,0.102039278,XArbitraryZVertical,-0.820994384,-0.353370577,-0.00828544,0.448362384,-0.330480754,0.730350316,0.597805083,0,0,0,-1,-1,362768.6732,unknown,2,2023-02-22T18:09:11.511-08:00,2023-02-22T18:09:11.156-08:00,9,0.9103349,0.8229022,1.776166,6.15759,0,0,2023-02-22T18:09:14.073-08:00,0,0,0,0,1,0.2,0
2023-02-22T18:09:16.656-08:00,1677118156,34.05932315,-118.4488344,97.86122,1.03,0.7,319.2187459,41.92325716,3.593520694,4.572870658,-9999,362773.8179,-0.124923706,0.790405273,0.690231323,362773.7979,-2.125987488,-2.677809843,-0.819193965,-0.154159606,-0.881285131,0.401315451,0.164346695,0.129008353,0.056400776,XArbitraryZVertical,-0.824583883,-0.354122828,0.004256442,0.441180762,-0.305444777,0.730595708,0.610683143,0,0,0,-1,-1,362768.6732,unknown,2,2023-02-22T18:09:11.511-08:00,2023-02-22T18:09:11.156-08:00,9,0.9103349,0.8229022,1.776166,6.15759,0,0,2023-02-22T18:09:14.073-08:00,0,0,0,0,1,0.2,0
2023-02-22T18:09:16.691-08:00,1677118156,34.05932315,-118.4488344,97.86122,1.03,0.7,319.2187459,41.92325716,3.593520694,4.572870658,-9999,362773.853,-0.161422729,0.811386108,0.680892944,362773.8279,-2.14187898,-2.715237036,-0.824812216,0.106359594,-0.828894854,0.400902659,0.155754387,0.055985153,0.072293639,XArbitraryZVertical,-0.826511128,-0.354751045,0.017647619,0.436714825,-0.280678183,0.734420359,0.617937922,0,0,0,-1,-1,362768.6732,unknown,2,2023-02-22T18:09:11.511-08:00,2023-02-22T18:09:11.156-08:00,9,0.9103349,0.8229022,1.776166,6.15759,0,0,2023-02-22T18:09:14.073-08:00,0,0,0,0,1,0.2,0
2023-02-22T18:09:16.727-08:00,1677118156,34.05932315,-118.4488344,97.86122,1.03,0.7,319.2187459,41.92325716,3.593520694,4.572870658,-9999,362773.888,-0.14730835,0.648208618,0.474456787,362773.858,-2.153981437,-2.748230277,-0.833412266,0.199546799,-0.797006965,0.327965856,0.098576754,0.073795974,0.080458641,XArbitraryZVertical,-0.827151216,-0.355418747,0.030799379,0.434223247,-0.257710665,0.740229905,0.621003211,0,0,0,-1,-1,362773.7979,unknown,2,2023-02-22T18:09:16.635-08:00,2023-02-22T18:09:11.156-08:00,12,0.8193014,0.8229022,1.776166,8.210119,0,0,2023-02-22T18:09:16.635-08:00,698810956.7,0,0.06999999,99.89061,1,0.2,0
2023-02-22T18:09:16.761-08:00,1677118156,34.05932315,-118.4488344,97.86122,1.03,0.7,319.2187459,41.92325716,3.593520694,4.572870658,-9999,362773.923,-0.153320313,0.604553223,0.517684937,362773.918,-2.177034909,-2.823042381,-0.84385513,0.027742866,-1.116637945,0.265978068,0.075405926,-0.075701892,-0.160693169,XArbitraryZVertical,-0.828138269,-0.360226422,0.059341235,0.425326422,-0.208142132,0.747210741,0.631152153,0,0,0,-1,-1,362773.7979,unknown,2,2023-02-22T18:09:16.635-08:00,2023-02-22T18:09:11.156-08:00,12,0.8193014,0.8229022,1.776166,8.210119,0,0,2023-02-22T18:09:16.635-08:00,698810956.7,0,0.06999999,99.89061,1,0.2,0
2023-02-22T18:09:16.796-08:00,1677118156,34.05932315,-118.4488344,97.86122,1.03,0.7,319.2187459,41.92325716,3.593520694,4.572870658,-9999,362773.9581,-0.184249878,0.647964478,0.463195801,362773.948,-2.189643696,-2.865972189,-0.845474059,-0.074134231,-1.095195413,0.281170577,0.001777366,-0.17687434,-0.118456423,XArbitraryZVertical,-0.828739856,-0.363812729,0.074844125,0.418603727,-0.180534109,0.748285651,0.638338923,0,0,0,-1,-1,362773.7979,unknown,2,2023-02-22T18:09:16.635-08:00,2023-02-22T18:09:11.156-08:00,12,0.8193014,0.8229022,1.776166,8.210119,0,0,2023-02-22T18:09:16.635-08:00,698810956.7,0,0.06999999,99.89061,1,0.2,0
2023-02-22T18:09:16.831-08:00,1677118156,34.05932315,-118.4488344,97.86122,1.03,0.7,319.2187459,41.92325716,3.593520694,4.572870658,-9999,362773.9931,-0.226699829,0.585144043,0.465393066,362773.9781,-2.202039125,-2.907846822,-0.844131967,-0.190371037,-1.070485234,0.228611469,-0.03813076,-0.113742948,-0.221035123,XArbitraryZVertical,-0.829495286,-0.367551429,0.089325907,0.410931184,-0.153885856,0.747394681,0.646312952,0,0,0,-1,-1,362773.7979,unknown,2,2023-02-22T18:09:16.635-08:00,2023-02-22T18:09:11.156-08:00,12,0.8193014,0.8229022,1.776166,8.210119,0,0,2023-02-22T18:09:16.635-08:00,698810956.7,0,0.06999999,99.89061,1,0.2,0
2023-02-22T18:09:16.866-08:00,1677118156,34.05932315,-118.4488344,97.86122,1.03,0.7,319.2187459,41.92325716,3.593520694,4.572870658,-9999,362774.0281,-0.204528809,0.655105591,0.446762085,362774.0081,-2.214169362,-2.948274857,-0.840197486,-0.110517964,-1.021307349,0.263410896,-0.089373082,-0.144479096,-0.199318588,XArbitraryZVertical,-0.830422513,-0.371269278,0.102756559,0.40249042,-0.128201932,0.744774938,0.654884875,0,0,0,-1,-1,362773.7979,unknown,2,2023-02-22T18:09:16.635-08:00,2023-02-22T18:09:11.156-08:00,12,0.8193014,0.8229022,1.776166,8.210119,0,0,2023-02-22T18:09:16.635-08:00,698810956.7,0,0.06999999,99.89061,1,0.2,0
2023-02-22T18:09:16.901-08:00,1677118156,34.05932315,-118.4488344,97.86122,1.03,0.7,319.2187459,41.92325716,3.593520694,4.572870658,-9999,362774.0632,-0.20262146,0.648620605,0.498794556,362774.0381,-2.227231828,-2.987357751,-0.842456621,0.124423385,-0.933053911,0.326423436,-0.102271721,-0.091174901,-0.210968077,XArbitraryZVertical,-0.830336629,-0.37337145,0.116865837,0.396834138,-0.102257103,0.746280551,0.657730341,0,0,0,-1,-1,362773.7979,unknown,2,2023-02-22T18:09:16.635-08:00,2023-02-22T18:09:11.156-08:00,12,0.8193014,0.8229022,1.776166,8.210119,0,0,2023-02-22T18:09:16.635-08:00,698810956.7,0,0.06999999,99.89061,1,0.2,0
2023-02-22T18:09:16.936-08:00,1677118156,34.05932315,-118.4488344,97.86122,1.03,0.7,319.2187459,41.92325716,3.593520694,4.572870658,-9999,362774.0982,-0.142501831,0.750259399,0.522796631,362774.0682,-2.242294917,-3.02494121,-0.847404595,0.05754742,-0.828136861,0.409348965,-0.135819882,-0.074912846,-0.164848089,XArbitraryZVertical,-0.82998343,-0.373956825,0.130540975,0.392737706,-0.077040195,0.749564946,0.657432377,0,0,0,-1,-1,362773.7979,unknown,2,2023-02-22T18:09:16.635-08:00,2023-02-22T18:09:11.156-08:00,12,0.8193014,0.8229022,1.776166,8.210119,0,0,2023-02-22T18:09:16.635-08:00,698810956.7,0,0.06999999,99.89061,1,0.2,0
2023-02-22T18:09:16.971-08:00,1677118156,34.05932315,-118.4488344,97.86122,1.03,0.7,319.2187459,41.92325716,3.593520694,4.572870658,-9999,362774.1332,-0.14630127,0.94354248,0.570373535,362774.1282,-2.283985745,-3.100952412,-0.850408657,0.200879812,-0.715079546,0.393368155,-0.124595642,0.114493251,-0.119260371,XArbitraryZVertical,-0.831794158,-0.371058414,0.154644259,0.382778561,-0.026802029,0.751550078,0.659131765,0,0,0,-1,-1,362773.7979,unknown,2,2023-02-22T18:09:16.635-08:00,2023-02-22T18:09:11.156-08:00,12,0.8193014,0.8229022,1.776166,8.210119,0,0,2023-02-22T18:09:16.635-08:00,698810956.7,0,0.06999999,99.89061,1,0.2,0
2023-02-22T18:09:17.007-08:00,1677118156,34.05932315,-118.4488344,97.86122,1.03,0.7,319.2187459,41.92325716,3.593520694,4.572870658,-9999,362774.1682,-0.077468872,0.917785645,0.60748291,362774.1582,-2.299972976,-3.134820554,-0.859726632,0.404518276,-0.758437276,0.323937744,-0.12582925,0.14791435,-0.082286537,XArbitraryZVertical,-0.830289818,-0.370045413,0.167430435,0.381644118,-0.00441974,0.757664204,0.652629554,0,0,0,-1,-1,362773.7979,unknown,2,2023-02-22T18:09:16.635-08:00,2023-02-22T18:09:11.156-08:00,12,0.8193014,0.8229022,1.776166,8.210119,0,0,2023-02-22T18:09:16.635-08:00,698810956.7,0,0.06999999,99.89061,1,0.2,0
2023-02-22T18:09:17.042-08:00,1677118156,34.05932315,-118.4488344,97.86122,1.03,0.7,319.2187459,41.92325716,3.593520694,4.572870658,-9999,362774.2033,0.03062439,0.98298645,0.618255615,362774.1883,-2.312798941,3.113973333,-0.870606719,0.348870009,-0.878845394,0.219355136,-0.073428124,0.201451182,0.01417774,XArbitraryZVertical,-0.827571149,-0.370384245,0.18123196,0.380915345,0.017794598,0.764720023,0.644116998,0,0,0,-1,-1,362773.7979,unknown,2,2023-02-22T18:09:16.635-08:00,2023-02-22T18:09:11.156-08:00,12,0.8193014,0.8229022,1.776166,8.210119,0,0,2023-02-22T18:09:16.635-08:00,698810956.7,0,0.06999999,99.89061,1,0.2,0
2023-02-22T18:09:17.077-08:00,1677118156,34.05932315,-118.4488344,97.86122,1.03,0.7,319.2187459,41.92325716,3.593520694,4.572870658,-9999,362774.2383,0.139297485,0.946136475,0.45425415,362774.2183,-2.323606715,3.076880987,-0.888712966,1.017657399,-1.074967027,0.203326061,0.002431124,0.233641922,-0.02635479,XArbitraryZVertical,-0.822454892,-0.371637022,0.197665889,0.382599162,0.04076653,0.776261032,0.629092276,0,0,0,-1,-1,362773.7979,unknown,2,2023-02-22T18:09:16.635-08:00,2023-02-22T18:09:11.156-08:00,12,0.8193014,0.8229022,1.776166,8.210119,0,0,2023-02-22T18:09:16.635-08:00,698810956.7,0,0.06999999,99.89061,1,0.2,0
2023-02-22T18:09:17.112-08:00,1677118157,34.05933104,-118.4488416,98.02907,1.08,0.62,317.8124956,33.13845568,3.593520727,4.572870632,-9999,362774.2733,0.238357544,0.980743408,0.402282715,362774.2483,-2.345670146,3.020144875,-0.929321633,1.624569058,-1.596567512,0.539519489,0.066804372,0.144922197,-0.13971597,XArbitraryZVertical,-0.812054229,-0.370881379,0.223356614,0.39131413,0.072493121,0.801214218,0.59397012,0,0,0,-1,-1,362773.7979,unknown,2,2023-02-22T18:09:16.635-08:00,2023-02-22T18:09:11.156-08:00,12,0.8193014,0.8229022,1.776166,8.210119,0,0,2023-02-22T18:09:16.635-08:00,698810956.7,0,0.06999999,99.89061,1,0.2,0
2023-02-22T18:09:17.147-08:00,1677118157,34.05933104,-118.4488416,98.02907,1.08,0.62,317.8124956,33.13845568,3.593520727,4.572870632,-9999,362774.3084,0.26763916,0.993621826,0.35736084,362774.2783,-2.402374124,2.920836285,-0.982814772,2.59128952,-1.956642866,0.971488476,0.101595357,0.104522645,-0.077186942,XArbitraryZVertical,-0.798349074,-0.365034,0.259986236,0.402239045,0.121457689,0.832061946,0.541222155,0,0,0,-1,-1,362773.7979,unknown,2,2023-02-22T18:09:16.635-08:00,2023-02-22T18:09:11.156-08:00,12,0.8193014,0.8229022,1.776166,8.210119,0,0,2023-02-22T18:09:16.635-08:00,698810956.7,0,0.06999999,99.89061,1,0.2,0
2023-02-22T18:09:17.182-08:00,1677118157,34.05933104,-118.4488416,98.02907,1.08,0.62,317.8124956,33.13845568,3.593520727,4.572870632,-9999,362774.3434,0.403411865,0.344940186,0.634552002,362774.3384,-2.774118831,2.466649844,-1.136384701,2.946887732,-2.099164963,2.568570375,0.079482257,-0.375226915,0.087892175,XArbitraryZVertical,-0.749393066,-0.32048133,0.367150009,0.448221645,0.262986004,0.907117844,0.328596503,0,0,0,-1,-1,362773.7979,unknown,2,2023-02-22T18:09:16.635-08:00,2023-02-22T18:09:11.156-08:00,12,0.8193014,0.8229022,1.776166,8.210119,0,0,2023-02-22T18:09:16.635-08:00,698810956.7,0,0.06999999,99.89061,1,0.2,0
2023-02-22T18:09:17.217-08:00,1677118157,34.05933104,-118.4488416,98.02907,1.08,0.62,317.8124956,33.13845568,3.593520727,4.572870632,-9999,362774.3784,0.581008911,0.742446899,0.518051147,362774.3684,-2.98318247,2.223828112,-1.105529732,0.668002307,-1.457930684,3.067253113,0.145285636,-0.481592655,0.393730849,XArbitraryZVertical,-0.742237441,-0.292209205,0.413044087,0.439422334,0.356347084,0.893701971,0.27260527,0,0,0,-1,-1,362773.7979,unknown,2,2023-02-22T18:09:16.635-08:00,2023-02-22T18:09:11.156-08:00,12,0.8193014,0.8229022,1.776166,8.210119,0,0,2023-02-22T18:09:16.635-08:00,698810956.7,0,0.06999999,99.89061,1,0.2,0
2023-02-22T18:09:17.252-08:00,1677118157,34.05933104,-118.4488416,98.02907,1.08,0.62,317.8124956,33.13845568,3.593520727,4.572870632,-9999,362774.4135,0.748550415,0.951278687,0.110427856,362774.3985,3.131293224,2.038050117,-1.045159851,2.428965807,-1.141920924,3.17440486,0.153751194,0.005539715,0.14460814,XArbitraryZVertical,-0.739275991,-0.257831956,0.452039496,0.427380511,0.447979182,0.865004778,0.226012617,0,0,0,-1,-1,362773.7979,unknown,2,2023-02-22T18:09:16.635-08:00,2023-02-22T18:09:11.156-08:00,12,0.8193014,0.8229022,1.776166,8.210119,0,0,2023-02-22T18:09:16.635-08:00,698810956.7,0,0.06999999,99.89061,1,0.2,0
2023-02-22T18:09:17.287-08:00,1677118157,34.05933104,-118.4488416,98.02907,1.08,0.62,317.8124956,33.13845568,3.593520727,4.572870632,-9999,362774.4485,0.853393555,0.597213745,0.336196899,362774.4285,2.869618004,1.78324916,-0.981275514,4.474198341,-0.979154408,3.917456865,0.232477129,0.01663208,-0.012599722,XArbitraryZVertical,-0.720092686,-0.200202825,0.499229287,0.438355347,0.543462753,0.831207156,0.117229298,0,0,0,-1,-1,362773.7979,unknown,2,2023-02-22T18:09:16.635-08:00,2023-02-22T18:09:11.156-08:00,12,0.8193014,0.8229022,1.776166,8.210119,0,0,2023-02-22T18:09:16.635-08:00,698810956.7,0,0.06999999,99.89061,1,0.2,0
2023-02-22T18:09:17.322-08:00,1677118157,34.05933104,-118.4488416,98.02907,1.08,0.62,317.8124956,33.13845568,3.593520727,4.572870632,-9999,362774.4835,0.778198242,0.806762695,0.471557617,362774.4585,2.59420649,1.540813039,-0.869273795,5.728643894,-0.456369281,4.248486042,0.20830214,-0.166646719,0.355544686,XArbitraryZVertical,-0.689839651,-0.120197236,0.547414821,0.458269513,0.645091414,0.763860464,-0.019347761,0,0,0,-1,-1,362773.7979,unknown,2,2023-02-22T18:09:16.635-08:00,2023-02-22T18:09:11.156-08:00,12,0.8193014,0.8229022,1.776166,8.210119,0,0,2023-02-22T18:09:16.635-08:00,698810956.7,0,0.06999999,99.89061,1,0.2,0
2023-02-22T18:09:17.357-08:00,1677118157,34.05933104,-118.4488416,98.02907,1.08,0.62,317.8124956,33.13845568,3.593520727,4.572870632,-9999,362774.5186,0.84034729,-0.2603302,0.126693726,362774.4885,2.355169771,1.374096313,-0.721133989,6.332238197,0.887464285,4.233813763,0.073819518,0.271678448,0.619255424,XArbitraryZVertical,-0.652691441,-0.024551618,0.582460769,0.483870356,0.736574709,0.660236776,-0.146782205,0,0,0,-1,-1,362773.7979,unknown,2,2023-02-22T18:09:16.635-08:00,2023-02-22T18:09:11.156-08:00,12,0.8193014,0.8229022,1.776166,8.210119,0,0,2023-02-22T18:09:16.635-08:00,698810956.7,0,0.06999999,99.89061,1,0.2,0
2023-02-22T18:09:17.392-08:00,1677118157,34.05933104,-118.4488416,98.02907,1.08,0.62,317.8124956,33.13845568,3.593520727,4.572870632,-9999,362774.5536,1.269683838,-0.058258057,-0.157241821,362774.5486,2.116776757,1.348528208,-0.436295308,2.247410536,1.863995194,3.540039539,0.342610955,-0.572670221,0.044320419,XArbitraryZVertical,-0.614129514,0.151488731,0.598457997,0.491674797,0.884027839,0.422584713,-0.199792206,0,0,0,-1,-1,362773.7979,unknown,2,2023-02-22T18:09:16.635-08:00,2023-02-22T18:09:11.156-08:00,12,0.8193014,0.8229022,1.776166,8.210119,0,0,2023-02-22T18:09:16.635-08:00,698810956.7,0,0.06999999,99.89061,1,0.2,0
2023-02-22T18:09:17.427-08:00,1677118157,34.05933104,-118.4488416,98.02907,1.08,0.62,317.8124956,33.13845568,3.593520727,4.572870632,-9999,362774.5886,1.264480591,0.361816406,-0.012451172,362774.5786,2.089352751,1.392540072,-0.332235027,0.869591951,1.890960455,2.901993275,0.252204239,-0.14743048,0.136245385,XArbitraryZVertical,-0.610699384,0.207936385,0.601089145,0.471699555,0.930336535,0.326156646,-0.16761744,0,0,0,-1,-1,362773.7979,unknown,2,2023-02-22T18:09:16.635-08:00,2023-02-22T18:09:11.156-08:00,12,0.8193014,0.8229022,1.776166,8.210119,0,0,2023-02-22T18:09:16.635-08:00,698810956.7,0,0.06999999,99.89061,1,0.2,0
2023-02-22T18:09:17.462-08:00,1677118157,34.05933104,-118.4488416,98.02907,1.08,0.62,317.8124956,33.13845568,3.593520727,4.572870632,-9999,362774.6237,1.2837677,0.376953125,-0.311233521,362774.6087,2.082510213,1.445485805,-0.250123483,0.508938909,1.715117812,2.42190361,0.331470311,0.168629304,0.035049275,XArbitraryZVertical,-0.613650075,0.250772393,0.600542148,0.447097138,0.961284697,0.247523606,-0.121093586,0,0,0,-1,-1,362773.7979,unknown,2,2023-02-22T18:09:16.635-08:00,2023-02-22T18:09:11.156-08:00,12,0.8193014,0.8229022,1.776166,8.210119,0,0,2023-02-22T18:09:16.635-08:00,698810956.7,0,0.06999999,99.89061,1,0.2,0
2023-02-22T18:09:17.497-08:00,1677118157,34.05933104,-118.4488416,98.02907,1.08,0.62,317.8124956,33.13845568,3.593520727,4.572870632,-9999,362774.6587,1.326660156,0.263870239,-0.37727356,362774.6387,2.069504295,1.491734394,-0.181740293,0.578872144,1.490877151,2.036669493,0.314921319,0.17027168,-0.279620945,XArbitraryZVertical,-0.615059279,0.287858755,0.597418705,0.426532779,0.9804582,0.180741474,-0.077678844,0,0,0,-1,-1,362773.7979,unknown,2,2023-02-22T18:09:16.635-08:00,2023-02-22T18:09:11.156-08:00,12,0.8193014,0.8229022,1.776166,8.210119,0,0,2023-02-22T18:09:16.635-08:00,698810956.7,0,0.06999999,99.89061,1,0.2,0
2023-02-22T18:09:17.532-08:00,1677118157,34.05933104,-118.4488416,98.02907,1.08,0.62,317.8124956,33.13845568,3.593520727,4.572870632,-9999,362774.6937,1.466201782,0.733734131,-0.30569458,362774.6687,2.070647342,1.532630864,-0.126867399,-0.537665606,1.244790077,1.583769083,0.335419357,0.13734287,-0.339424014,XArbitraryZVertical,-0.618520708,0.313858826,0.59594759,0.404686665,0.991240799,0.126527339,-0.037849545,0,0,0,-1,-1,362773.7979,unknown,2,2023-02-22T18:09:16.635-08:00,2023-02-22T18:09:11.156-08:00,12,0.8193014,0.8229022,1.776166,8.210119,0,0,2023-02-22T18:09:16.635-08:00,698810956.7,0,0.06999999,99.89061,1,0.2,0
2023-02-22T18:09:17.568-08:00,1677118157,34.05933104,-118.4488416,98.02907,1.08,0.62,317.8124956,33.13845568,3.593520727,4.572870632,-9999,362774.7288,1.557403564,0.851425171,-0.252532959,362774.6987,2.095406988,1.572004646,-0.090996703,-0.780257523,1.197176456,0.719558954,0.444048941,0.55347693,-0.306745291,XArbitraryZVertical,-0.628343639,0.325247492,0.595471398,0.380542031,0.995862007,0.09087117,0.00120332,0,0,0,-1,-1,362773.7979,unknown,2,2023-02-22T18:09:16.635-08:00,2023-02-22T18:09:11.156-08:00,12,0.8193014,0.8229022,1.776166,8.210119,0,0,2023-02-22T18:09:16.635-08:00,698810956.7,0,0.06999999,99.89061,1,0.2,0
2023-02-22T18:09:17.602-08:00,1677118157,34.05933104,-118.4488416,98.02907,1.08,0.62,317.8124956,33.13845568,3.593520727,4.572870632,-9999,362774.7638,1.539596558,0.457595825,-0.248458862,362774.7588,2.134222708,1.632715214,-0.098323402,-1.787693858,0.712728143,-0.856118679,0.528236568,0.384287298,-0.330028296,XArbitraryZVertical,-0.653637617,0.321788901,0.581817098,0.361522663,0.993263066,0.098165058,0.061580461,0,0,0,-1,-1,362773.7979,unknown,2,2023-02-22T18:09:16.635-08:00,2023-02-22T18:09:11.156-08:00,12,0.8193014,0.8229022,1.776166,8.210119,0,0,2023-02-22T18:09:16.635-08:00,698810956.7,0,0.06999999,99.89061,1,0.2,0
2023-02-22T18:09:17.637-08:00,1677118157,34.05933104,-118.4488416,98.02907,1.08,0.62,317.8124956,33.13845568,3.593520727,4.572870632,-9999,362774.7988,1.37310791,1.332489014,-0.295654297,362774.7888,2.203581422,1.648681371,-0.13029372,-2.036950588,-0.190401122,-1.560417891,0.565452337,0.703067183,-0.371641517,XArbitraryZVertical,-0.673422798,0.291676451,0.582830908,0.348905237,0.988518119,0.129925385,0.077146836,0,0,0,-1,-1,362773.7979,unknown,2,2023-02-22T18:09:16.635-08:00,2023-02-22T18:09:11.156-08:00,12,0.8193014,0.8229022,1.776166,8.210119,0,0,2023-02-22T18:09:16.635-08:00,698810956.7,0,0.06999999,99.89061,1,0.2,0
2023-02-22T18:09:17.672-08:00,1677118157,34.05933104,-118.4488416,98.02907,1.08,0.62,317.8124956,33.13845568,3.593520727,4.572870632,-9999,362774.8339,1.032409668,1.132705688,-0.082290649,362774.8188,2.248783001,1.641285051,-0.184066886,-0.43838051,-0.62963289,-2.232220888,0.301285744,1.201812625,-0.380870819,XArbitraryZVertical,-0.684149692,0.25799129,0.583313441,0.353730216,0.980666041,0.183029264,0.069240615,0,0,0,-1,-1,362773.7979,unknown,2,2023-02-22T18:09:16.635-08:00,2023-02-22T18:09:11.156-08:00,12,0.8193014,0.8229022,1.776166,8.210119,0,0,2023-02-22T18:09:16.635-08:00,698810956.7,0,0.06999999,99.89061,1,0.2,0
2023-02-22T18:09:17.707-08:00,1677118157,34.05933104,-118.4488416,98.02907,1.08,0.62,317.8124956,33.13845568,3.593520727,4.572870632,-9999,362774.8689,0.733612061,0.312362671,0.033203125,362774.8489,2.234661433,1.616512213,-0.261752875,1.363936067,-0.693193674,-2.585418224,0.037085474,0.807342172,-0.089812875,XArbitraryZVertical,-0.683937431,0.233026298,0.574298267,0.384850493,0.964928746,0.258774132,0.04414333,0,0,0,-1,-1,362773.7979,unknown,2,2023-02-22T18:09:16.635-08:00,2023-02-22T18:09:11.156-08:00,12,0.8193014,0.8229022,1.776166,8.210119,0,0,2023-02-22T18:09:16.635-08:00,698810956.7,0,0.06999999,99.89061,1,0.2,0
2023-02-22T18:09:17.742-08:00,1677118157,34.05933104,-118.4488416,98.02907,1.08,0.62,317.8124956,33.13845568,3.593520727,4.572870632,-9999,362774.9039,0.447296143,-0.166992188,-0.320571899,362774.8789,2.194750667,1.582205268,-0.345811031,1.165521741,-0.732020438,-2.556438208,-0.207127571,-0.026597142,0.022469878,XArbitraryZVertical,-0.678626179,0.211738431,0.560622407,0.424659734,0.940739632,0.338959813,0.010733309,0,0,0,-1,-1,362773.7979,unknown,2,2023-02-22T18:09:16.635-08:00,2023-02-22T18:09:11.156-08:00,12,0.8193014,0.8229022,1.776166,8.210119,0,0,2023-02-22T18:09:16.635-08:00,698810956.7,0,0.06999999,99.89061,1,0.2,0
2023-02-22T18:09:17.778-08:00,1677118157,34.05933104,-118.4488416,98.02907,1.08,0.62,317.8124956,33.13845568,3.593520727,4.572870632,-9999,362774.939,0.335006714,-0.059188843,0.05770874,362774.9089,2.150836632,1.539938745,-0.416909958,2.39960885,-0.83839637,-2.088546038,-0.426345229,-0.586608171,-0.224933267,XArbitraryZVertical,-0.669802024,0.193029158,0.549474319,0.460633244,0.913909316,0.404937029,-0.028209986,0,0,0,-1,-1,362773.7979,unknown,2,2023-02-22T18:09:16.635-08:00,2023-02-22T18:09:11.156-08:00,12,0.8193014,0.8229022,1.776166,8.210119,0,0,2023-02-22T18:09:16.635-08:00,698810956.7,0,0.06999999,99.89061,1,0.2,0
2023-02-22T18:09:17.812-08:00,1677118157,34.05933104,-118.4488416,98.02907,1.08,0.62,317.8124956,33.13845568,3.593520727,4.572870632,-9999,362774.974,0.566802979,-0.094818115,0.090377808,362774.969,1.915464274,1.413455373,-0.467230605,1.761682034,-0.181360498,-0.610160887,-0.485687554,-0.78865695,0.274541736,XArbitraryZVertical,-0.617963631,0.219480947,0.51860939,0.548628732,0.881790578,0.450415432,-0.139898136,0,0,0,-1,-1,362773.7979,unknown,2,2023-02-22T18:09:16.635-08:00,2023-02-22T18:09:11.156-08:00,12,0.8193014,0.8229022,1.776166,8.210119,0,0,2023-02-22T18:09:16.635-08:00,698810956.7,0,0.06999999,99.89061,1,0.2,0
2023-02-22T18:09:17.848-08:00,1677118157,34.05933104,-118.4488416,98.02907,1.08,0.62,317.8124956,33.13845568,3.593520727,4.572870632,-9999,362775.009,0.562362671,0.508331299,0.07699585,362774.999,1.881958985,1.391657784,-0.480347975,0.544529021,-0.133017793,-0.544871509,-0.257560849,-0.095846385,0.2052439,XArbitraryZVertical,-0.610697393,0.219179755,0.512647816,0.56231765,0.872642636,0.46208781,-0.158017859,0,0,0,-1,-1,362773.7979,unknown,2,2023-02-22T18:09:16.635-08:00,2023-02-22T18:09:11.156-08:00,12,0.8193014,0.8229022,1.776166,8.210119,0,0,2023-02-22T18:09:16.635-08:00,698810956.7,0,0.06999999,99.89061,1,0.2,0
2023-02-22T18:09:17.882-08:00,1677118157,34.05933104,-118.4488416,98.02907,1.08,0.62,317.8124956,33.13845568,3.593520727,4.572870632,-9999,362775.044,0.29624939,0.476593018,-0.125259399,362775.029,1.860032624,1.376942569,-0.495259439,0.69594121,-0.071620949,-0.699745893,-0.344566405,0.010442555,0.172363758,XArbitraryZVertical,-0.606938127,0.216514565,0.507051311,0.572404245,0.863365233,0.47525993,-0.169495106,0,0,0,-1,-1,362773.7979,unknown,2,2023-02-22T18:09:16.635-08:00,2023-02-22T18:09:11.156-08:00,12,0.8193014,0.8229022,1.776166,8.210119,0,0,2023-02-22T18:09:16.635-08:00,698810956.7,0,0.06999999,99.89061,1,0.2,0
2023-02-22T18:09:17.917-08:00,1677118157,34.05933104,-118.4488416,98.02907,1.08,0.62,317.8124956,33.13845568,3.593520727,4.572870632,-9999,362775.0791,0.487823486,0.541519165,-0.227874756,362775.0591,1.820813435,1.359943292,-0.510419952,1.221949816,0.210962415,-0.661943853,-0.55606544,0.017407179,0.025070444,XArbitraryZVertical,-0.600906322,0.218180903,0.496843719,0.58690291,0.853215098,0.488543719,-0.182617366,0,0,0,-1,-1,362773.7979,unknown,2,2023-02-22T18:09:16.635-08:00,2023-02-22T18:09:11.156-08:00,12,0.8193014,0.8229022,1.776166,8.210119,0,0,2023-02-22T18:09:16.635-08:00,698810956.7,0,0.06999999,99.89061,1,0.2,0
2023-02-22T18:09:17.952-08:00,1677118157,34.05933104,-118.4488416,98.02907,1.08,0.62,317.8124956,33.13845568,3.593520727,4.572870632,-9999,362775.1141,0.529830933,0.417739868,-0.287918091,362775.0891,1.787715244,1.351436793,-0.523117309,0.369962811,0.237175435,-0.608629704,-0.357684314,0.041936189,-0.039371252,XArbitraryZVertical,-0.597345572,0.221193445,0.486207715,0.598208921,0.84550786,0.499582976,-0.188503459,0,0,0,-1,-1,362773.7979,unknown,2,2023-02-22T18:09:16.635-08:00,2023-02-22T18:09:11.156-08:00,12,0.8193014,0.8229022,1.776166,8.210119,0,0,2023-02-22T18:09:16.635-08:00,698810956.7,0,0.06999999,99.89061,1,0.2,0
2023-02-22T18:09:17.988-08:00,1677118157,34.05933104,-118.4488416,98.02907,1.08,0.62,317.8124956,33.13845568,3.593520727,4.572870632,-9999,362775.1491,0.777145386,0.605712891,-0.462631226,362775.1191,1.788273952,1.358153744,-0.540425663,-0.476518214,0.134204373,-0.525858402,-0.294368207,-0.062428951,-0.08299391,XArbitraryZVertical,-0.601992674,0.217073537,0.47970195,0.600308166,0.838176131,0.514501035,-0.180967793,0,0,0,-1,-1,362773.7979,unknown,2,2023-02-22T18:09:16.635-08:00,2023-02-22T18:09:11.156-08:00,12,0.8193014,0.8229022,1.776166,8.210119,0,0,2023-02-22T18:09:16.635-08:00,698810956.7,0,0.06999999,99.89061,1,0.2,0
2023-02-22T18:09:18.023-08:00,1677118157,34.05933104,-118.4488416,98.02907,1.08,0.62,317.8124956,33.13845568,3.593520727,4.572870632,-9999,362775.1842,1.181060791,0.376052856,-0.427627563,362775.1792,1.707000571,1.315642564,-0.547835411,2.568394661,-0.040034793,-0.256671131,0.277148128,0.006808281,-0.276745379,XArbitraryZVertical,-0.584271842,0.225605308,0.465384231,0.625416881,0.826016545,0.520840645,-0.21545732,0,0,0,-1,-1,362773.7979,unknown,2,2023-02-22T18:09:16.635-08:00,2023-02-22T18:09:11.156-08:00,12,0.8193014,0.8229022,1.776166,8.210119,0,0,2023-02-22T18:09:16.635-08:00,698810956.7,0,0.06999999,99.89061,1,0.2,0
2023-02-22T18:09:18.058-08:00,1677118157,34.05933104,-118.4488416,98.02907,1.08,0.62,317.8124956,33.13845568,3.593520727,4.572870632,-9999,362775.2192,1.175323486,0.267105103,-0.337127686,362775.2092,1.638671936,1.277685399,-0.539507824,1.011009336,-0.168554962,-0.275128573,0.358226657,-0.351695955,-0.078340411,XArbitraryZVertical,-0.565988584,0.236031113,0.45689376,0.644355816,0.82136935,0.513713777,-0.247892469,0,0,0,-1,-1,362773.7979,unknown,2,2023-02-22T18:09:16.635-08:00,2023-02-22T18:09:11.156-08:00,12,0.8193014,0.8229022,1.776166,8.210119,0,0,2023-02-22T18:09:16.635-08:00,698810956.7,0,0.06999999,99.89061,1,0.2,0
2023-02-22T18:09:18.093-08:00,1677118157,34.05933104,-118.4488416,98.02907,1.08,0.62,317.8124956,33.13845568,3.593520727,4.572870632,-9999,362775.2542,1.063461304,0.752944946,-0.091018677,362775.2392,1.623977767,1.267449193,-0.544926343,-0.365868539,0.062315684,-0.379337728,0.327480197,-0.159041166,0.029728562,XArbitraryZVertical,-0.563053236,0.23504293,0.453541398,0.649635287,0.816120267,0.518355131,-0.255451739,0,0,0,-1,-1,362773.7979,unknown,2,2023-02-22T18:09:16.635-08:00,2023-02-22T18:09:11.156-08:00,12,0.8193014,0.8229022,1.776166,8.210119,0,0,2023-02-22T18:09:16.635-08:00,698810956.7,0,0.06999999,99.89061,1,0.2,0
2023-02-22T18:09:18.128-08:00,1677118157,34.05933104,-118.4488416,98.02907,1.08,0.62,317.8124956,33.13845568,3.593520727,4.572870632,-9999,362775.2893,1.284072876,0.736831665,-0.227600098,362775.2693,1.643151991,1.282163478,-0.563714807,-0.807937741,0.31993416,-0.398367345,0.275047421,0.266359687,0.095261022,XArbitraryZVertical,-0.572454214,0.228025657,0.450388441,0.64610421,0.810310185,0.534329891,-0.240600944,0,0,0,-1,-1,362773.7979,unknown,2,2023-02-22T18:09:16.635-08:00,2023-02-22T18:09:11.156-08:00,12,0.8193014,0.8229022,1.776166,8.210119,0,0,2023-02-22T18:09:16.635-08:00,698810956.7,0,0.06999999,99.89061,1,0.2,0
2023-02-22T18:09:18.164-08:00,1677118157,34.05933104,-118.4488416,98.02907,1.08,0.62,317.8124956,33.13845568,3.593520727,4.572870632,-9999,362775.3243,1.401123047,1.050247192,-0.250442505,362775.2993,1.703009841,1.325987954,-0.590980072,-3.171675444,0.219264686,-0.565687716,0.478437066,0.179656506,-0.026336908,XArbitraryZVertical,-0.594159027,0.215275297,0.449121349,0.631602456,0.80563581,0.557175159,-0.201263189,0,0,0,-1,-1,362773.7979,unknown,2,2023-02-22T18:09:16.635-08:00,2023-02-22T18:09:11.156-08:00,12,0.8193014,0.8229022,1.776166,8.210119,0,0,2023-02-22T18:09:16.635-08:00,698810956.7,0,0.06999999,99.89061,1,0.2,0
2023-02-22T18:09:18.198-08:00,1677118158,34.05933907,-118.4488486,97.4958,1.06,0.78,318.5156207,42.45247047,3.59352076,4.572870606,-9999,362775.3593,1.372711182,0.558685303,0.122009277,362775.3293,1.80871461,1.387666863,-0.626810916,-2.609925747,-0.088727295,-0.454786986,0.617001057,0.559690595,-0.084901929,XArbitraryZVertical,-0.624695755,0.189764414,0.452983588,0.607083707,0.796359599,0.586564898,-0.147489354,0,0,0,-1,-1,362773.7979,unknown,2,2023-02-22T18:09:16.635-08:00,2023-02-22T18:09:11.156-08:00,12,0.8193014,0.8229022,1.776166,8.210119,0,0,2023-02-22T18:09:16.635-08:00,698810956.7,0,0.06999999,99.89061,1,0.2,0
2023-02-22T18:09:18.233-08:00,1677118158,34.05933907,-118.4488486,97.4958,1.06,0.78,318.5156207,42.45247047,3.59352076,4.572870606,-9999,362775.3944,0.949966431,0.087554932,0.128463745,362775.3894,1.968853322,1.470351379,-0.6675877,-2.12829423,-0.266051084,-0.195748419,0.356442988,-0.433943152,0.145963609,XArbitraryZVertical,-0.662307723,0.148236888,0.462119069,0.570806838,0.781359315,0.619093359,-0.078748614,0,0,0,-1,-1,362773.7979,unknown,2,2023-02-22T18:09:16.635-08:00,2023-02-22T18:09:11.156-08:00,12,0.8193014,0.8229022,1.776166,8.210119,0,0,2023-02-22T18:09:16.635-08:00,698810956.7,0,0.06999999,99.89061,1,0.2,0
2023-02-22T18:09:18.268-08:00,1677118158,34.05933907,-118.4488486,97.4958,1.06,0.78,318.5156207,42.45247047,3.59352076,4.572870606,-9999,362775.4294,0.794067383,0.256652832,0.15020752,362775.4194,2.048693214,1.514704999,-0.673666212,-1.807535529,-0.089809738,0.169670567,0.068856239,-0.492172122,0.204062462,XArbitraryZVertical,-0.678773138,0.13175628,0.467960539,0.550381933,0.780310631,0.623855472,-0.043814622,0,0,0,-1,-1,362773.7979,unknown,2,2023-02-22T18:09:16.635-08:00,2023-02-22T18:09:11.156-08:00,12,0.8193014,0.8229022,1.776166,8.210119,0,0,2023-02-22T18:09:16.635-08:00,698810956.7,0,0.06999999,99.89061,1,0.2,0
2023-02-22T18:09:18.303-08:00,1677118158,34.05933907,-118.4488486,97.4958,1.06,0.78,318.5156207,42.45247047,3.59352076,4.572870606,-9999,362775.4644,0.68019104,0.401672363,0.008544922,362775.4494,2.110713785,1.548809476,-0.663572757,-1.611496449,-0.206162646,0.500468314,-0.018029213,-0.389632285,0.076432347,XArbitraryZVertical,-0.69002697,0.123300016,0.475764865,0.531326343,0.787606299,0.615935385,-0.017319772,0,0,0,-1,-1,362773.7979,unknown,2,2023-02-22T18:09:16.635-08:00,2023-02-22T18:09:11.156-08:00,12,0.8193014,0.8229022,1.776166,8.210119,0,0,2023-02-22T18:09:16.635-08:00,698810956.7,0,0.06999999,99.89061,1,0.2,0
2023-02-22T18:09:18.338-08:00,1677118158,34.05933907,-118.4488486,97.4958,1.06,0.78,318.5156207,42.45247047,3.59352076,4.572870606,-9999,362775.4995,0.578994751,0.479187012,-0.000518799,362775.4794,2.157655148,1.569012828,-0.644887318,-0.653545141,-0.313296348,0.752318144,-0.148058474,-0.152072728,0.047155917,XArbitraryZVertical,-0.696537374,0.118840353,0.48590583,0.514400848,0.799166322,0.601108372,-0.001425314,0,0,0,-1,-1,362773.7979,unknown,2,2023-02-22T18:09:16.635-08:00,2023-02-22T18:09:11.156-08:00,12,0.8193014,0.8229022,1.776166,8.210119,0,0,2023-02-22T18:09:16.635-08:00,698810956.7,0,0.06999999,99.89061,1,0.2,0
2023-02-22T18:09:18.373-08:00,1677118158,34.05933907,-118.4488486,97.4958,1.06,0.78,318.5156207,42.45247047,3.59352076,4.572870606,-9999,362775.5345,0.465637207,0.33946228,0.211288452,362775.5095,2.165847255,1.563017607,-0.621583809,-0.115019239,-0.387796223,0.743948281,-0.2339378,-0.103136539,0.005804897,XArbitraryZVertical,-0.69412517,0.122590366,0.496026357,0.507069614,0.812932432,0.582323432,-0.006323701,0,0,0,-1,-1,362773.7979,unknown,2,2023-02-22T18:09:16.635-08:00,2023-02-22T18:09:11.156-08:00,12,0.8193014,0.8229022,1.776166,8.210119,0,0,2023-02-22T18:09:16.635-08:00,698810956.7,0,0.06999999,99.89061,1,0.2,0
2023-02-22T18:09:18.408-08:00,1677118158,34.05933907,-118.4488486,97.4958,1.06,0.78,318.5156207,42.45247047,3.59352076,4.572870606,-9999,362775.5695,0.388946533,0.416946411,0.332260132,362775.5395,2.177744556,1.559982905,-0.599063427,-0.588882089,-0.197979823,0.729209185,-0.34266156,-0.221416235,0.170993865,XArbitraryZVertical,-0.692653557,0.125562448,0.505719694,0.498711107,0.825815856,0.563869238,-0.008930244,0,0,0,-1,-1,362773.7979,unknown,2,2023-02-22T18:09:16.635-08:00,2023-02-22T18:09:11.156-08:00,12,0.8193014,0.8229022,1.776166,8.210119,0,0,2023-02-22T18:09:16.635-08:00,698810956.7,0,0.06999999,99.89061,1,0.2,0
2023-02-22T18:09:18.443-08:00,1677118158,34.05933907,-118.4488486,97.4958,1.06,0.78,318.5156207,42.45247047,3.59352076,4.572870606,-9999,362775.6046,0.405273438,0.589584351,0.193466187,362775.5996,2.228800122,1.598452285,-0.557626144,-0.268729717,0.498718232,0.609134078,-0.452025294,0.064118743,0.154667616,XArbitraryZVertical,-0.703171837,0.131457606,0.514780372,0.47251397,0.848189235,0.529173434,0.023463469,0,0,0,-1,-1,362773.7979,unknown,2,2023-02-22T18:09:16.635-08:00,2023-02-22T18:09:11.156-08:00,12,0.8193014,0.8229022,1.776166,8.210119,0,0,2023-02-22T18:09:16.635-08:00,698810956.7,0,0.06999999,99.89061,1,0.2,0
2023-02-22T18:09:18.478-08:00,1677118158,34.05933907,-118.4488486,97.4958,1.06,0.78,318.5156207,42.45247047,3.59352076,4.572870606,-9999,362775.6396,0.64390564,0.725341797,-0.048828125,362775.6296,2.240908716,1.622562856,-0.546316109,-0.369329512,0.543782115,0.17191948,-0.352017879,0.239001751,0.04099321,XArbitraryZVertical,-0.709519017,0.13670659,0.511780519,0.464730758,0.853299558,0.519543111,0.044211853,0,0,0,-1,-1,362773.7979,unknown,2,2023-02-22T18:09:16.635-08:00,2023-02-22T18:09:11.156-08:00,12,0.8193014,0.8229022,1.776166,8.210119,0,0,2023-02-22T18:09:16.635-08:00,698810956.7,0,0.06999999,99.89061,1,0.2,0
2023-02-22T18:09:18.513-08:00,1677118158,34.05933907,-118.4488486,97.4958,1.06,0.78,318.5156207,42.45247047,3.59352076,4.572870606,-9999,362775.6746,0.523071289,0.628829956,0.080795288,362775.6596,2.246252775,1.636484373,-0.543040108,-0.350659192,0.313459814,-0.040612698,-0.254914761,0.10703814,-0.064941049,XArbitraryZVertical,-0.713258699,0.139143631,0.508836811,0.461504319,0.854295313,0.516741157,0.056197844,0,0,0,-1,-1,362773.7979,unknown,2,2023-02-22T18:09:16.635-08:00,2023-02-22T18:09:11.156-08:00,12,0.8193014,0.8229022,1.776166,8.210119,0,0,2023-02-22T18:09:16.635-08:00,698810956.7,0,0.06999999,99.89061,1,0.2,0
2023-02-22T18:09:18.548-08:00,1677118158,34.05933907,-118.4488486,97.4958,1.06,0.78,318.5156207,42.45247047,3.59352076,4.572870606,-9999,362775.7097,0.707962036,0.923477173,-0.04498291,362775.6896,2.259895136,1.656414942,-0.543889785,-0.342631936,0.474596739,-0.079910539,-0.306226909,0.106020927,0.011389725,XArbitraryZVertical,-0.719299745,0.138546604,0.5046321,0.45690168,0.852567852,0.517468393,0.073174566,0,0,0,-1,-1,362773.7979,unknown,2,2023-02-22T18:09:16.635-08:00,2023-02-22T18:09:11.156-08:00,12,0.8193014,0.8229022,1.776166,8.210119,0,0,2023-02-22T18:09:16.635-08:00,698810956.7,0,0.06999999,99.89061,1,0.2,0
2023-02-22T18:09:18.584-08:00,1677118158,34.05933907,-118.4488486,97.4958,1.06,0.78,318.5156207,42.45247047,3.59352076,4.572870606,-9999,362775.7447,0.952377319,0.81338501,-0.23828125,362775.7197,2.263710583,1.671925035,-0.547371172,0.27337575,0.393354923,-0.137364283,-0.141570926,0.403032959,-0.131189108,XArbitraryZVertical,-0.723623905,0.139540595,0.499094331,0.455852909,0.849533141,0.520444274,0.086206265,0,0,0,-1,-1,362773.7979,unknown,2,2023-02-22T18:09:16.635-08:00,2023-02-22T18:09:11.156-08:00,12,0.8193014,0.8229022,1.776166,8.210119,0,0,2023-02-22T18:09:16.635-08:00,698810956.7,0,0.06999999,99.89061,1,0.2,0
2023-02-22T18:09:18.619-08:00,1677118158,34.05933907,-118.4488486,97.4958,1.06,0.78,318.5156207,42.45247047,3.59352076,4.572870606,-9999,362775.7797,1.186477661,0.584716797,-0.104751587,362775.7497,2.242792006,1.667949038,-0.554995892,0.937897384,-0.033843674,-0.225135073,0.054389,0.286109567,-0.252728581,XArbitraryZVertical,-0.7215196,0.14363053,0.493925643,0.463483883,0.845894933,0.526939809,0.082440525,0,0,0,-1,-1,362773.7979,unknown,2,2023-02-22T18:09:16.635-08:00,2023-02-22T18:09:11.156-08:00,12,0.8193014,0.8229022,1.776166,8.210119,0,0,2023-02-22T18:09:16.635-08:00,698810956.7,0,0.06999999,99.89061,1,0.2,0
2023-02-22T18:09:18.653-08:00,1677118158,34.05933907,-118.4488486,97.4958,1.06,0.78,318.5156207,42.45247047,3.59352076,4.572870606,-9999,362775.8148,1.255264282,0.801269531,-0.086196899,362775.8097,2.235542308,1.637971608,-0.567116294,-0.482325673,-0.726543725,-0.145089179,0.435273647,0.119887173,-0.062506445,XArbitraryZVertical,-0.7141742,0.13514261,0.500101249,0.470733883,0.841551244,0.537202001,0.056616627,0,0,0,-1,-1,362773.7979,unknown,2,2023-02-22T18:09:16.635-08:00,2023-02-22T18:09:11.156-08:00,12,0.8193014,0.8229022,1.776166,8.210119,0,0,2023-02-22T18:09:16.635-08:00,698810956.7,0,0.06999999,99.89061,1,0.2,0
2023-02-22T18:09:18.688-08:00,1677118158,34.05933907,-118.4488486,97.4958,1.06,0.78,318.5156207,42.45247047,3.59352076,4.572870606,-9999,362775.8498,1.121429443,1.034286499,-0.01776123,362775.8398,2.229402784,1.611721632,-0.569249669,1.076419353,-0.816222727,-0.037605193,0.359006882,0.289674103,-0.090919495,XArbitraryZVertical,-0.707268524,0.13039261,0.50746749,0.474600658,0.841600418,0.539000213,0.034461994,0,0,0,-1,-1,362773.7979,unknown,2,2023-02-22T18:09:16.635-08:00,2023-02-22T18:09:11.156-08:00,12,0.8193014,0.8229022,1.776166,8.210119,0,0,2023-02-22T18:09:16.635-08:00,698810956.7,0,0.06999999,99.89061,1,0.2,0
2023-02-22T18:09:18.723-08:00,1677118158,34.05933907,-118.4488486,97.4958,1.06,0.78,318.5156207,42.45247047,3.59352076,4.572870606,-9999,362775.8848,0.844985962,0.733459473,0.081375122,362775.8698,2.178206969,1.560922306,-0.57377394,1.319316626,-0.611556172,-0.182140097,0.219783306,0.462489247,0.092429638,XArbitraryZVertical,-0.69121393,0.134450659,0.511756818,0.492190287,0.839817524,0.542805493,-0.008292645,0,0,0,-1,-1,362773.7979,unknown,2,2023-02-22T18:09:16.635-08:00,2023-02-22T18:09:11.156-08:00,12,0.8193014,0.8229022,1.776166,8.210119,0,0,2023-02-22T18:09:16.635-08:00,698810956.7,0,0.06999999,99.89061,1,0.2,0
2023-02-22T18:09:18.759-08:00,1677118158,34.05933907,-118.4488486,97.4958,1.06,0.78,318.5156207,42.45247047,3.59352076,4.572870606,-9999,362775.9198,0.639984131,0.239562988,0.075485229,362775.8998,2.136289216,1.52598447,-0.581768227,1.381180525,-0.120011717,-0.306474358,-0.029325306,0.13819623,0.109906733,XArbitraryZVertical,-0.680026631,0.137295529,0.511278412,0.507255587,0.834653735,0.549502134,-0.03742744,0,0,0,-1,-1,362773.7979,unknown,2,2023-02-22T18:09:16.635-08:00,2023-02-22T18:09:11.156-08:00,12,0.8193014,0.8229022,1.776166,8.210119,0,0,2023-02-22T18:09:16.635-08:00,698810956.7,0,0.06999999,99.89061,1,0.2,0
2023-02-22T18:09:18.793-08:00,1677118158,34.05933907,-118.4488486,97.4958,1.06,0.78,318.5156207,42.45247047,3.59352076,4.572870606,-9999,362775.9549,0.955703735,0.267944336,0.206481934,362775.9299,2.077022086,1.500770531,-0.582673677,1.657254219,0.545731425,-0.002910329,-0.192963958,-0.31069541,0.133908629,XArbitraryZVertical,-0.669437857,0.150470151,0.504270724,0.524330812,0.832948089,0.550258398,-0.058423381,0,0,0,-1,-1,362773.7979,unknown,2,2023-02-22T18:09:16.635-08:00,2023-02-22T18:09:11.156-08:00,12,0.8193014,0.8229022,1.776166,8.210119,0,0,2023-02-22T18:09:16.635-08:00,698810956.7,0,0.06999999,99.89061,1,0.2,0
2023-02-22T18:09:18.829-08:00,1677118158,34.05933907,-118.4488486,97.4958,1.06,0.78,318.5156207,42.45247047,3.59352076,4.572870606,-9999,362775.9899,1.009231567,0.74130249,-0.509735107,362775.9599,2.034784368,1.4997952,-0.577804318,0.516785502,0.796779275,0.167954534,0.068392575,-0.29894793,0.311363041,XArbitraryZVertical,-0.665377128,0.166014217,0.494679794,0.533857973,0.835553288,0.54618603,-0.059425116,0,0,0,-1,-1,362773.7979,unknown,2,2023-02-22T18:09:16.635-08:00,2023-02-22T18:09:11.156-08:00,12,0.8193014,0.8229022,1.776166,8.210119,0,0,2023-02-22T18:09:16.635-08:00,698810956.7,0,0.06999999,99.89061,1,0.2,0
2023-02-22T18:09:18.863-08:00,1677118158,34.05933907,-118.4488486,97.4958,1.06,0.78,318.5156207,42.45247047,3.59352076,4.572870606,-9999,362776.0249,0.917907715,0.516738892,-0.227294922,362776.0199,2.002114986,1.494404174,-0.591558861,1.100684285,-0.298050016,-0.508807659,0.094910145,0.108375132,-0.353474975,XArbitraryZVertical,-0.6627363,0.170604576,0.484039625,0.545325808,0.827651441,0.557655692,-0.063349351,0,0,0,-1,-1,362773.7979,unknown,2,2023-02-22T18:09:16.635-08:00,2023-02-22T18:09:11.156-08:00,12,0.8193014,0.8229022,1.776166,8.210119,0,0,2023-02-22T18:09:16.635-08:00,698810956.7,0,0.06999999,99.89061,1,0.2,0
2023-02-22T18:09:18.898-08:00,1677118158,34.05933907,-118.4488486,97.4958,1.06,0.78,318.5156207,42.45247047,3.59352076,4.572870606,-9999,362776.06,1.271438599,0.305999756,-0.159866333,362776.05,1.959132114,1.458299435,-0.603979173,1.159339666,-0.476559311,-0.335110456,0.160117328,-0.050496697,-0.230339587,XArbitraryZVertical,-0.651741011,0.170394107,0.480690256,0.561370015,0.817879379,0.567922175,-0.092399009,0,0,0,-1,-1,362773.7979,unknown,2,2023-02-22T18:09:16.635-08:00,2023-02-22T18:09:11.156-08:00,12,0.8193014,0.8229022,1.776166,8.210119,0,0,2023-02-22T18:09:16.635-08:00,698810956.7,0,0.06999999,99.89061,1,0.2,0
2023-02-22T18:09:18.934-08:00,1677118158,34.05933907,-118.4488486,97.4958,1.06,0.78,318.5156207,42.45247047,3.59352076,4.572870606,-9999,362776.095,1.230285645,-0.151443481,-0.202011108,362776.08,1.931876994,1.424027909,-0.619768389,0.242777795,-0.64210552,-0.553660035,0.539541483,-0.154851794,0.030572534,XArbitraryZVertical,-0.643121261,0.163931618,0.479775464,0.573878849,0.805261374,0.580846667,-0.119042933,0,0,0,-1,-1,362773.7979,unknown,2,2023-02-22T18:09:16.635-08:00,2023-02-22T18:09:11.156-08:00,12,0.8193014,0.8229022,1.776166,8.210119,0,0,2023-02-22T18:09:16.635-08:00,698810956.7,0,0.06999999,99.89061,1,0.2,0
2023-02-22T18:09:18.969-08:00,1677118158,34.05933907,-118.4488486,97.4958,1.06,0.78,318.5156207,42.45247047,3.59352076,4.572870606,-9999,362776.13,0.974227905,0.123977661,-0.357513428,362776.11,1.949907676,1.416347934,-0.64372555,-1.257348061,-0.585979044,-0.947300076,0.412490904,-0.818960071,-0.160842359,XArbitraryZVertical,-0.645556231,0.147422771,0.480905685,0.574676845,0.790344238,0.600179553,-0.123047359,0,0,0,-1,-1,362773.7979,unknown,2,2023-02-22T18:09:16.635-08:00,2023-02-22T18:09:11.156-08:00,12,0.8193014,0.8229022,1.776166,8.210119,0,0,2023-02-22T18:09:16.635-08:00,698810956.7,0,0.06999999,99.89061,1,0.2,0
2023-02-22T18:09:19.004-08:00,1677118158,34.05933907,-118.4488486,97.4958,1.06,0.78,318.5156207,42.45247047,3.59352076,4.572870606,-9999,362776.1651,0.678085327,0.154464722,-0.476409912,362776.14,1.982628565,1.419235824,-0.67316635,-0.72054857,-0.539097726,-0.708791494,0.201339006,-0.499486983,-0.239468709,XArbitraryZVertical,-0.651780739,0.127120099,0.481316137,0.572151483,0.772889078,0.623464704,-0.118044697,0,0,0,-1,-1,362773.7979,unknown,2,2023-02-22T18:09:16.635-08:00,2023-02-22T18:09:11.156-08:00,12,0.8193014,0.8229022,1.776166,8.210119,0,0,2023-02-22T18:09:16.635-08:00,698810956.7,0,0.06999999,99.89061,1,0.2,0
2023-02-22T18:09:19.039-08:00,1677118158,34.05933907,-118.4488486,97.4958,1.06,0.78,318.5156207,42.45247047,3.59352076,4.572870606,-9999,362776.2001,0.533569336,0.680923462,-0.462188721,362776.1701,2.019221775,1.423042637,-0.689892688,-1.498023987,-0.73967433,-0.160342991,-0.04272598,-0.491007566,-0.350255787,XArbitraryZVertical,-0.656563984,0.110220503,0.485926299,0.566260497,0.762910426,0.636454403,-0.11355035,0,0,0,-1,-1,362773.7979,unknown,2,2023-02-22T18:09:16.635-08:00,2023-02-22T18:09:11.156-08:00,12,0.8193014,0.8229022,1.776166,8.210119,0,0,2023-02-22T18:09:16.635-08:00,698810956.7,0,0.06999999,99.89061,1,0.2,0
2023-02-22T18:09:19.074-08:00,1677118158,34.05933907,-118.4488486,97.4958,1.06,0.78,318.5156207,42.45247047,3.59352076,4.572870606,-9999,362776.2351,0.338699341,0.906387329,-0.185134888,362776.2301,2.151541638,1.449260753,-0.692804108,-1.878884077,-1.220944166,0.19874236,-0.252704382,0.147237122,-0.291875839,XArbitraryZVertical,-0.669403644,0.072494946,0.512815089,0.532601178,0.763782382,0.638697326,-0.093286492,0,0,0,-1,-1,362773.7979,unknown,2,2023-02-22T18:09:16.635-08:00,2023-02-22T18:09:11.156-08:00,12,0.8193014,0.8229022,1.776166,8.210119,0,0,2023-02-22T18:09:16.635-08:00,698810956.7,0,0.06999999,99.89061,1,0.2,0
2023-02-22T18:09:19.109-08:00,1677118158,34.05933907,-118.4488486,97.4958,1.06,0.78,318.5156207,42.45247047,3.59352076,4.572870606,-9999,362776.2702,0.291732788,1.044677734,0.289474487,362776.2602,2.23216683,1.465631281,-0.698218829,-2.074251175,-1.176233172,-0.002291776,-0.471915901,0.352339089,0.166832626,XArbitraryZVertical,-0.676405163,0.047672374,0.526982626,0.512340395,0.76175648,0.642854333,-0.0804068,0,0,0,-1,-1,362773.7979,unknown,2,2023-02-22T18:09:16.635-08:00,2023-02-22T18:09:11.156-08:00,12,0.8193014,0.8229022,1.776166,8.210119,0,0,2023-02-22T18:09:16.635-08:00,698810956.7,0,0.06999999,99.89061,1,0.2,0
2023-02-22T18:09:19.144-08:00,1677118158,34.05933907,-118.4488486,97.4958,1.06,0.78,318.5156207,42.45247047,3.59352076,4.572870606,-9999,362776.3052,0.322845459,1.17678833,0.52142334,362776.2902,2.320694776,1.485677915,-0.709255631,-2.545584679,-1.279183865,-0.514633894,-0.483074069,0.412238002,0.453201056,XArbitraryZVertical,-0.683665043,0.018578773,0.539632896,0.490971808,0.756099582,0.651269078,-0.064513877,0,0,0,-1,-1,362773.7979,unknown,2,2023-02-22T18:09:16.635-08:00,2023-02-22T18:09:11.156-08:00,12,0.8193014,0.8229022,1.776166,8.210119,0,0,2023-02-22T18:09:16.635-08:00,698810956.7,0,0.06999999,99.89061,1,0.2,0
2023-02-22T18:09:19.179-08:00,1677118158,34.05933907,-118.4488486,97.4958,1.06,0.78,318.5156207,42.45247047,3.59352076,4.572870606,-9999,362776.3402,0.391433716,0.891952515,0.543075562,362776.3202,2.414863046,1.520665305,-0.73663801,-2.180309057,-0.483498514,-0.763051629,-0.39632535,0.489041448,0.580880284,XArbitraryZVertical,-0.693689824,-0.015342627,0.543679739,0.472198386,0.739800692,0.671801388,-0.037118062,0,0,0,-1,-1,362773.7979,unknown,2,2023-02-22T18:09:16.635-08:00,2023-02-22T18:09:11.156-08:00,12,0.8193014,0.8229022,1.776166,8.210119,0,0,2023-02-22T18:09:16.635-08:00,698810956.7,0,0.06999999,99.89061,1,0.2,0
2023-02-22T18:09:19.214-08:00,1677118159,34.0593491,-118.448868,97.67366,1.7,0.72,306.2109292,26.66761813,3.59352082,4.572870559,-9999,362776.3753,0.682281494,0.857772827,0.683349609,362776.3502,2.511435707,1.578643026,-0.760765617,-2.176106453,0.071907923,-0.79928267,-0.332852304,0.202476323,0.537392259,XArbitraryZVertical,-0.707724034,-0.044366406,0.540114588,0.453248917,0.724286079,0.689476192,0.005683372,0,0,0,-1,-1,362773.7979,unknown,2,2023-02-22T18:09:16.635-08:00,2023-02-22T18:09:11.156-08:00,12,0.8193014,0.8229022,1.776166,8.210119,0,0,2023-02-22T18:09:16.635-08:00,698810956.7,0,0.06999999,99.89061,1,0.2,0
2023-02-22T18:09:19.249-08:00,1677118159,34.0593491,-118.448868,97.67366,1.7,0.72,306.2109292,26.66761813,3.59352082,4.572870559,-9999,362776.4103,0.973175049,0.861541748,0.494430542,362776.3803,2.594161928,1.656485022,-0.773678759,-1.991633058,1.023440957,-0.265693724,-0.118298888,0.249287486,0.589794278,XArbitraryZVertical,-0.725858023,-0.061164726,0.52776319,0.436869568,0.712720275,0.698771536,0.061221987,0,0,0,-1,-1,362773.7979,unknown,2,2023-02-22T18:09:16.635-08:00,2023-02-22T18:09:11.156-08:00,12,0.8193014,0.8229022,1.776166,8.210119,0,0,2023-02-22T18:09:16.635-08:00,698810956.7,0,0.06999999,99.89061,1,0.2,0
2023-02-22T18:09:19.284-08:00,1677118159,34.0593491,-118.448868,97.67366,1.7,0.72,306.2109292,26.66761813,3.59352082,4.572870559,-9999,362776.4453,1.12928772,0.684616089,0.358428955,362776.4403,2.667530172,1.798594757,-0.772796342,-0.057848681,1.755393505,-0.113508612,0.42561233,0.124796987,0.096597672,XArbitraryZVertical,-0.759949536,-0.057625392,0.490896802,0.422109473,0.697465122,0.698140025,0.16168797,0,0,0,-1,-1,362776.3602,unknown,2,2023-02-22T18:09:19.198-08:00,2023-02-22T18:09:11.156-08:00,12,1.32173,0.8531022,1.776166,8.210119,0,0,2023-02-22T18:09:19.198-08:00,698810959.3,0,-0.03,99.89061,1,0.2,0
2023-02-22T18:09:19.319-08:00,1677118159,34.0593491,-118.448868,97.67366,1.7,0.72,306.2109292,26.66761813,3.59352082,4.572870559,-9999,362776.4804,1.154159546,0.636489868,0.110244751,362776.4703,2.678403014,1.85748217,-0.774846434,-0.152519748,1.651343346,-0.132498279,0.433118403,-0.245657325,0.193304569,XArbitraryZVertical,-0.773643866,-0.050005603,0.470207732,0.42175757,0.685366154,0.699606359,0.20205079,0,0,0,-1,-1,362776.3602,unknown,2,2023-02-22T18:09:19.198-08:00,2023-02-22T18:09:11.156-08:00,12,1.32173,0.8531022,1.776166,8.210119,0,0,2023-02-22T18:09:19.198-08:00,698810959.3,0,-0.03,99.89061,1,0.2,0
2023-02-22T18:09:19.354-08:00,1677118159,34.0593491,-118.448868,97.67366,1.7,0.72,306.2109292,26.66761813,3.59352082,4.572870559,-9999,362776.5154,0.891571045,0.404510498,0.284408569,362776.5004,2.657155308,1.883791528,-0.782367642,0.997517288,1.191888809,-0.071252435,0.429658115,-0.01877284,-0.137268156,XArbitraryZVertical,-0.779560811,-0.038430679,0.453987203,0.429771836,0.674788415,0.704960644,0.218383953,0,0,0,-1,-1,362776.3602,unknown,2,2023-02-22T18:09:19.198-08:00,2023-02-22T18:09:11.156-08:00,12,1.32173,0.8531022,1.776166,8.210119,0,0,2023-02-22T18:09:19.198-08:00,698810959.3,0,-0.03,99.89061,1,0.2,0
2023-02-22T18:09:19.389-08:00,1677118159,34.0593491,-118.448868,97.67366,1.7,0.72,306.2109292,26.66761813,3.59352082,4.572870559,-9999,362776.5504,0.922210693,0.288787842,0.06312561,362776.5304,2.628693791,1.898813855,-0.789688721,0.216197565,1.161575437,0.019233689,0.209021628,-0.320867181,0.102946043,XArbitraryZVertical,-0.78276715,-0.02624973,0.440467049,0.438834118,0.666527748,0.710134149,0.226826921,0,0,0,-1,-1,362776.3602,unknown,2,2023-02-22T18:09:19.198-08:00,2023-02-22T18:09:11.156-08:00,12,1.32173,0.8531022,1.776166,8.210119,0,0,2023-02-22T18:09:19.198-08:00,698810959.3,0,-0.03,99.89061,1,0.2,0
2023-02-22T18:09:19.424-08:00,1677118159,34.0593491,-118.448868,97.67366,1.7,0.72,306.2109292,26.66761813,3.59352082,4.572870559,-9999,362776.5855,0.570205688,0.530487061,-0.051452637,362776.5604,2.626233098,1.924736207,-0.787262937,-0.279203266,0.6890589,0.006887508,0.260172188,-0.41963625,-0.181497425,XArbitraryZVertical,-0.788641462,-0.018873458,0.430235854,0.438845852,0.662038565,0.708424151,0.244623125,0,0,0,-1,-1,362776.3602,unknown,2,2023-02-22T18:09:19.198-08:00,2023-02-22T18:09:11.156-08:00,12,1.32173,0.8531022,1.776166,8.210119,0,0,2023-02-22T18:09:19.198-08:00,698810959.3,0,-0.03,99.89061,1,0.2,0
2023-02-22T18:09:19.459-08:00,1677118159,34.0593491,-118.448868,97.67366,1.7,0.72,306.2109292,26.66761813,3.59352082,4.572870559,-9999,362776.6205,0.354995728,0.342315674,0.104370117,362776.5905,2.63820267,1.951907459,-0.784603829,-0.225461379,0.611350954,0.022805024,-0.040317237,-0.210908949,-0.30318144,XArbitraryZVertical,-0.794558986,-0.016892488,0.422631986,0.435629248,0.656894386,0.706544876,0.263218671,0,0,0,-1,-1,362776.3602,unknown,2,2023-02-22T18:09:19.198-08:00,2023-02-22T18:09:11.156-08:00,12,1.32173,0.8531022,1.776166,8.210119,0,0,2023-02-22T18:09:19.198-08:00,698810959.3,0,-0.03,99.89061,1,0.2,0
2023-02-22T18:09:19.494-08:00,1677118159,34.0593491,-118.448868,97.67366,1.7,0.72,306.2109292,26.66761813,3.59352082,4.572870559,-9999,362776.6555,0.329971313,0.460769653,0.057113647,362776.6505,2.682986727,2.012077786,-0.760441003,-1.235983372,0.429127902,0.161420122,-0.370274663,-0.297410607,-0.211759835,XArbitraryZVertical,-0.809008092,-0.015140005,0.412721752,0.418255281,0.655125678,0.689241052,0.309446633,0,0,0,-1,-1,362776.3602,unknown,2,2023-02-22T18:09:19.198-08:00,2023-02-22T18:09:11.156-08:00,12,1.32173,0.8531022,1.776166,8.210119,0,0,2023-02-22T18:09:19.198-08:00,698810959.3,0,-0.03,99.89061,1,0.2,0
2023-02-22T18:09:19.529-08:00,1677118159,34.0593491,-118.448868,97.67366,1.7,0.72,306.2109292,26.66761813,3.59352082,4.572870559,-9999,362776.6905,0.543273926,0.782821655,0.144897461,362776.6805,2.740223731,2.060955901,-0.737697734,-1.762110353,0.250577331,-0.033346433,-0.229364634,-0.105996609,-0.352526665,XArbitraryZVertical,-0.820786808,-0.022297814,0.408549692,0.398621444,0.652887642,0.672585964,0.348376364,0,0,0,-1,-1,362776.3602,unknown,2,2023-02-22T18:09:19.198-08:00,2023-02-22T18:09:11.156-08:00,12,1.32173,0.8531022,1.776166,8.210119,0,0,2023-02-22T18:09:19.198-08:00,698810959.3,0,-0.03,99.89061,1,0.2,0
2023-02-22T18:09:19.564-08:00,1677118159,34.0593491,-118.448868,97.67366,1.7,0.72,306.2109292,26.66761813,3.59352082,4.572870559,-9999,362776.7256,0.397628784,0.996994019,0.328933716,362776.7106,2.801942265,2.105214613,-0.719825855,-1.226156116,0.035444986,-0.385939211,-0.114346564,0.297747076,-0.147845685,XArbitraryZVertical,-0.830843107,-0.03451951,0.405193768,0.379902988,0.647076786,0.659253716,0.382983744,0,0,0,-1,-1,362776.3602,unknown,2,2023-02-22T18:09:19.198-08:00,2023-02-22T18:09:11.156-08:00,12,1.32173,0.8531022,1.776166,8.210119,0,0,2023-02-22T18:09:19.198-08:00,698810959.3,0,-0.03,99.89061,1,0.2,0
2023-02-22T18:09:19.599-08:00,1677118159,34.0593491,-118.448868,97.67366,1.7,0.72,306.2109292,26.66761813,3.59352082,4.572870559,-9999,362776.7606,0.556564331,0.919052124,0.45211792,362776.7406,2.840987481,2.136835157,-0.716316194,-0.647882044,0.350663185,-0.456219554,-0.24883765,0.279775381,-0.037086874,XArbitraryZVertical,-0.836844991,-0.043982789,0.399868153,0.371296998,0.636593938,0.656610727,0.404488057,0,0,0,-1,-1,362776.3602,unknown,2,2023-02-22T18:09:19.198-08:00,2023-02-22T18:09:11.156-08:00,12,1.32173,0.8531022,1.776166,8.210119,0,0,2023-02-22T18:09:19.198-08:00,698810959.3,0,-0.03,99.89061,1,0.2,0
2023-02-22T18:09:19.634-08:00,1677118159,34.0593491,-118.448868,97.67366,1.7,0.72,306.2109292,26.66761813,3.59352082,4.572870559,-9999,362776.7956,0.637084961,0.867340088,0.732284546,362776.7706,2.86428753,2.163996718,-0.722024691,-0.089228496,0.288177103,-0.478243828,-0.065691531,0.258146584,0.032592505,XArbitraryZVertical,-0.840982548,-0.050110211,0.3919792,0.369580305,0.622255862,0.66090548,0.419525355,0,0,0,-1,-1,362776.3602,unknown,2,2023-02-22T18:09:19.198-08:00,2023-02-22T18:09:11.156-08:00,12,1.32173,0.8531022,1.776166,8.210119,0,0,2023-02-22T18:09:19.198-08:00,698810959.3,0,-0.03,99.89061,1,0.2,0
2023-02-22T18:09:19.669-08:00,1677118159,34.0593491,-118.448868,97.67366,1.7,0.72,306.2109292,26.66761813,3.59352082,4.572870559,-9999,362776.8307,0.716644287,0.904434204,0.466491699,362776.8006,2.870939031,2.173497246,-0.734698344,0.11669527,0.160042971,-0.430720985,0.042790771,0.255860448,0.282717943,XArbitraryZVertical,-0.841061867,-0.054156689,0.387459898,0.373573147,0.611292541,0.670363367,0.420636028,0,0,0,-1,-1,362776.3602,unknown,2,2023-02-22T18:09:19.198-08:00,2023-02-22T18:09:11.156-08:00,12,1.32173,0.8531022,1.776166,8.210119,0,0,2023-02-22T18:09:19.198-08:00,698810959.3,0,-0.03,99.89061,1,0.2,0
2023-02-22T18:09:19.704-08:00,1677118159,34.0593491,-118.448868,97.67366,1.7,0.72,306.2109292,26.66761813,3.59352082,4.572870559,-9999,362776.8657,0.886047363,0.937438965,0.427902222,362776.8607,2.861188318,2.179808522,-0.769161203,0.822671711,0.099748477,-0.282387853,0.219351411,0.302697003,0.022741586,XArbitraryZVertical,-0.838010434,-0.056995588,0.378093454,0.389275282,0.589318573,0.695532799,0.411019981,0,0,0,-1,-1,362776.3602,unknown,2,2023-02-22T18:09:19.198-08:00,2023-02-22T18:09:11.156-08:00,12,1.32173,0.8531022,1.776166,8.210119,0,0,2023-02-22T18:09:19.198-08:00,698810959.3,0,-0.03,99.89061,1,0.2,0
2023-02-22T18:09:19.739-08:00,1677118159,34.0593491,-118.448868,97.67366,1.7,0.72,306.2109292,26.66761813,3.59352082,4.572870559,-9999,362776.9007,0.881240845,0.717147827,0.548980713,362776.8907,2.842653084,2.166970885,-0.785108909,0.319871694,-0.007298884,-0.13852708,0.297763884,-0.024208724,0.065031528,XArbitraryZVertical,-0.833956786,-0.055561298,0.377474388,0.398675504,0.585292816,0.706902206,0.397141963,0,0,0,-1,-1,362776.3602,unknown,2,2023-02-22T18:09:19.198-08:00,2023-02-22T18:09:11.156-08:00,12,1.32173,0.8531022,1.776166,8.210119,0,0,2023-02-22T18:09:19.198-08:00,698810959.3,0,-0.03,99.89061,1,0.2,0
2023-02-22T18:09:19.774-08:00,1677118159,34.0593491,-118.448868,97.67366,1.7,0.72,306.2109292,26.66761813,3.59352082,4.572870559,-9999,362776.9358,0.968383789,0.823364258,0.475128174,362776.9208,2.847480028,2.171124713,-0.788440505,-0.402884513,0.013193144,-0.310190618,0.342243433,0.029407978,0.15342927,XArbitraryZVertical,-0.834150866,-0.057540244,0.376208878,0.399184663,0.581691563,0.709254742,0.398237079,0,0,0,-1,-1,362776.3602,unknown,2,2023-02-22T18:09:19.198-08:00,2023-02-22T18:09:11.156-08:00,12,1.32173,0.8531022,1.776166,8.210119,0,0,2023-02-22T18:09:19.198-08:00,698810959.3,0,-0.03,99.89061,1,0.2,0
2023-02-22T18:09:19.810-08:00,1677118159,34.0593491,-118.448868,97.67366,1.7,0.72,306.2109292,26.66761813,3.59352082,4.572870559,-9999,362776.9708,0.808807373,0.583389282,0.182846069,362776.9508,2.87645817,2.189781755,-0.792912717,-0.551393449,-0.160562605,-0.697315872,0.371482491,0.121843457,0.008001149,XArbitraryZVertical,-0.836122617,-0.066982626,0.373530209,0.396090404,0.571571767,0.712400377,0.407175392,0,0,0,-1,-1,362776.3602,unknown,2,2023-02-22T18:09:19.198-08:00,2023-02-22T18:09:11.156-08:00,12,1.32173,0.8531022,1.776166,8.210119,0,0,2023-02-22T18:09:19.198-08:00,698810959.3,0,-0.03,99.89061,1,0.2,0
2023-02-22T18:09:19.845-08:00,1677118159,34.0593491,-118.448868,97.67366,1.7,0.72,306.2109292,26.66761813,3.59352082,4.572870559,-9999,362777.0058,0.706497192,0.395050049,0.273757935,362776.9808,2.907814922,2.205874163,-0.804679757,-0.270985335,-0.350560486,-0.644312203,0.250649333,-0.137219369,-0.228472233,XArbitraryZVertical,-0.836254713,-0.079606806,0.371374508,0.395501966,0.55815804,0.720608652,0.411318362,0,0,0,-1,-1,362776.3602,unknown,2,2023-02-22T18:09:19.198-08:00,2023-02-22T18:09:11.156-08:00,12,1.32173,0.8531022,1.776166,8.210119,0,0,2023-02-22T18:09:19.198-08:00,698810959.3,0,-0.03,99.89061,1,0.2,0
2023-02-22T18:09:19.880-08:00,1677118159,34.0593491,-118.448868,97.67366,1.7,0.72,306.2109292,26.66761813,3.59352082,4.572870559,-9999,362777.0409,0.636993408,0.419250488,0.193893433,362777.0108,2.926918854,2.205354201,-0.81419276,-0.072399177,-0.47703582,-0.338706762,0.194396853,-0.385161161,-0.187936246,XArbitraryZVertical,-0.833908197,-0.089833311,0.374094378,0.395702686,0.552826166,0.727171719,0.406945825,0,0,0,-1,-1,362776.3602,unknown,2,2023-02-22T18:09:19.198-08:00,2023-02-22T18:09:11.156-08:00,12,1.32173,0.8531022,1.776166,8.210119,0,0,2023-02-22T18:09:19.198-08:00,698810959.3,0,-0.03,99.89061,1,0.2,0
2023-02-22T18:09:19.915-08:00,1677118159,34.0593491,-118.448868,97.67366,1.7,0.72,306.2109292,26.66761813,3.59352082,4.572870559,-9999,362777.0759,0.499481201,0.60836792,0.36529541,362777.0709,2.956184715,2.192656077,-0.811804737,-0.496246159,-0.619225025,-0.075687297,-0.012391984,-0.135366201,-0.170358568,XArbitraryZVertical,-0.83044774,-0.103963262,0.385427304,0.388579418,0.559358478,0.725530386,0.400903612,0,0,0,-1,-1,362776.3602,unknown,2,2023-02-22T18:09:19.198-08:00,2023-02-22T18:09:11.156-08:00,12,1.32173,0.8531022,1.776166,8.210119,0,0,2023-02-22T18:09:19.198-08:00,698810959.3,0,-0.03,99.89061,1,0.2,0
2023-02-22T18:09:19.950-08:00,1677118159,34.0593491,-118.448868,97.67366,1.7,0.72,306.2109292,26.66761813,3.59352082,4.572870559,-9999,362777.1109,0.32019043,0.553634644,0.365982056,362777.1009,2.964828997,2.179336876,-0.807624573,0.181200013,-0.649548888,0.081537738,-0.137490153,0.012566805,0.007317483,XArbitraryZVertical,-0.828042762,-0.109175855,0.393151766,0.384522363,0.567131817,0.72264725,0.395148367,0,0,0,-1,-1,362776.3602,unknown,2,2023-02-22T18:09:19.198-08:00,2023-02-22T18:09:11.156-08:00,12,1.32173,0.8531022,1.776166,8.210119,0,0,2023-02-22T18:09:19.198-08:00,698810959.3,0,-0.03,99.89061,1,0.2,0
2023-02-22T18:09:19.985-08:00,1677118159,34.0593491,-118.448868,97.67366,1.7,0.72,306.2109292,26.66761813,3.59352082,4.572870559,-9999,362777.146,0.315139771,0.653091431,0.195526123,362777.131,2.95358119,2.154509034,-0.809703475,0.108862437,-0.413284689,0.106602751,-0.292354643,-0.244834721,-0.060019761,XArbitraryZVertical,-0.823410271,-0.109794481,0.400967513,0.386219769,0.575511932,0.724082708,0.380118608,0,0,0,-1,-1,362776.3602,unknown,2,2023-02-22T18:09:19.198-08:00,2023-02-22T18:09:11.156-08:00,12,1.32173,0.8531022,1.776166,8.210119,0,0,2023-02-22T18:09:19.198-08:00,698810959.3,0,-0.03,99.89061,1,0.2,0
2023-02-22T18:09:20.020-08:00,1677118159,34.0593491,-118.448868,97.67366,1.7,0.72,306.2109292,26.66761813,3.59352082,4.572870559,-9999,362777.181,0.346115112,0.692611694,0.512802124,362777.161,2.944490998,2.138510907,-0.809508327,0.333630085,-0.227600694,0.132333755,-0.250248015,-0.033213317,-0.155851305,XArbitraryZVertical,-0.820710458,-0.109105173,0.405811668,0.387101059,0.581638277,0.723948061,0.370939195,0,0,0,-1,-1,362776.3602,unknown,2,2023-02-22T18:09:19.198-08:00,2023-02-22T18:09:11.156-08:00,12,1.32173,0.8531022,1.776166,8.210119,0,0,2023-02-22T18:09:19.198-08:00,698810959.3,0,-0.03,99.89061,1,0.2,0
2023-02-22T18:09:20.055-08:00,1677118159,34.0593491,-118.448868,97.67366,1.7,0.72,306.2109292,26.66761813,3.59352082,4.572870559,-9999,362777.216,0.421966553,0.808395386,0.496185303,362777.191,2.933203317,2.129465522,-0.812544884,0.02098126,0.187583044,-0.036196612,-0.236987889,-0.033427894,0.148306102,XArbitraryZVertical,-0.819028622,-0.106958594,0.406915229,0.390092203,0.583103001,0.726039529,0.364496052,0,0,0,-1,-1,362776.3602,unknown,2,2023-02-22T18:09:19.198-08:00,2023-02-22T18:09:11.156-08:00,12,1.32173,0.8531022,1.776166,8.210119,0,0,2023-02-22T18:09:19.198-08:00,698810959.3,0,-0.03,99.89061,1,0.2,0
2023-02-22T18:09:20.090-08:00,1677118159,34.0593491,-118.448868,97.67366,1.7,0.72,306.2109292,26.66761813,3.59352082,4.572870559,-9999,362777.2511,0.402709961,0.968551636,0.30279541,362777.221,2.955324862,2.155521033,-0.809862099,-0.736319065,0.431990206,-0.345834672,-0.158481419,-0.000513732,0.093025923,XArbitraryZVertical,-0.82349296,-0.110353974,0.400866656,0.385988502,0.575030982,0.724192083,0.380637318,0,0,0,-1,-1,362776.3602,unknown,2,2023-02-22T18:09:19.198-08:00,2023-02-22T18:09:11.156-08:00,12,1.32173,0.8531022,1.776166,8.210119,0,0,2023-02-22T18:09:19.198-08:00,698810959.3,0,-0.03,99.89061,1,0.2,0
2023-02-22T18:09:20.125-08:00,1677118159,34.0593491,-118.448868,97.67366,1.7,0.72,306.2109292,26.66761813,3.59352082,4.572870559,-9999,362777.2861,0.441558838,0.373718262,0.147705078,362777.2811,2.944091563,2.180756418,-0.828490828,-0.081118904,0.541633368,0.085673198,-0.128291845,-0.315174282,-0.195869386,XArbitraryZVertical,-0.826180665,-0.105073689,0.385810022,0.396907777,0.554088414,0.736912012,0.387229949,0,0,0,-1,-1,362776.3602,unknown,2,2023-02-22T18:09:19.198-08:00,2023-02-22T18:09:11.156-08:00,12,1.32173,0.8531022,1.776166,8.210119,0,0,2023-02-22T18:09:19.198-08:00,698810959.3,0,-0.03,99.89061,1,0.2,0
2023-02-22T18:09:20.160-08:00,1677118159,34.0593491,-118.448868,97.67366,1.7,0.72,306.2109292,26.66761813,3.59352082,4.572870559,-9999,362777.3211,0.67817688,1.140930176,0.182403564,362777.3111,2.962676175,2.207797093,-0.813732034,-0.70173049,0.358373642,0.169664711,-0.041357398,0.005230904,-0.219498813,XArbitraryZVertical,-0.832706391,-0.104150047,0.380149882,0.388894637,0.552099705,0.726855338,0.408494323,0,0,0,-1,-1,362776.3602,unknown,2,2023-02-22T18:09:19.198-08:00,2023-02-22T18:09:11.156-08:00,12,1.32173,0.8531022,1.776166,8.210119,0,0,2023-02-22T18:09:19.198-08:00,698810959.3,0,-0.03,99.89061,1,0.2,0
2023-02-22T18:09:20.195-08:00,1677118160,34.05935371,-118.4488783,98.11525,1.3,0.82,302.6953059,37.80756275,3.593520864,4.572870524,-9999,362777.3562,0.730697632,0.690582275,0.293670654,362777.3411,2.970072701,2.220298333,-0.805344509,-0.214151353,0.08848317,0.058962092,0.202013671,0.412521362,-0.20114094,XArbitraryZVertical,-0.836011548,-0.102970772,0.377402802,0.38477128,0.551785827,0.721069396,0.419036567,0,0,0,-1,-1,362776.3602,unknown,2,2023-02-22T18:09:19.198-08:00,2023-02-22T18:09:11.156-08:00,12,1.32173,0.8531022,1.776166,8.210119,0,0,2023-02-22T18:09:19.198-08:00,698810959.3,0,-0.03,99.89061,1,0.2,0
2023-02-22T18:09:20.230-08:00,1677118160,34.05935371,-118.4488783,98.11525,1.3,0.82,302.6953059,37.80756275,3.593520864,4.572870524,-9999,362777.3912,0.891098022,0.919067383,0.618865967,362777.3712,2.989220272,2.236171774,-0.793105371,-0.902474701,0.067290202,0.110893369,0.175740302,-0.006679177,-0.092963457,XArbitraryZVertical,-0.839932666,-0.105319624,0.375854361,0.377033714,0.551966608,0.71253556,0.433158219,0,0,0,-1,-1,362776.3602,unknown,2,2023-02-22T18:09:19.198-08:00,2023-02-22T18:09:11.156-08:00,12,1.32173,0.8531022,1.776166,8.210119,0,0,2023-02-22T18:09:19.198-08:00,698810959.3,0,-0.03,99.89061,1,0.2,0
2023-02-22T18:09:20.265-08:00,1677118160,34.05935371,-118.4488783,98.11525,1.3,0.82,302.6953059,37.80756275,3.593520864,4.572870524,-9999,362777.4262,0.794372559,0.967788696,0.718460083,362777.4012,3.008788552,2.250393776,-0.77609098,-0.50089103,-0.037966646,0.187678933,0.335997045,0.218572199,0.170346767,XArbitraryZVertical,-0.844243099,-0.107299508,0.375419863,0.367151561,0.555100918,0.700495064,0.4485192,0,0,0,-1,-1,362776.3602,unknown,2,2023-02-22T18:09:19.198-08:00,2023-02-22T18:09:11.156-08:00,12,1.32173,0.8531022,1.776166,8.210119,0,0,2023-02-22T18:09:19.198-08:00,698810959.3,0,-0.03,99.89061,1,0.2,0
2023-02-22T18:09:20.300-08:00,1677118160,34.05935371,-118.4488783,98.11525,1.3,0.82,302.6953059,37.80756275,3.593520864,4.572870524,-9999,362777.4613,0.728439331,0.80557251,0.549255371,362777.4312,3.015991252,2.257781546,-0.764822049,-0.255353302,0.251150072,0.125067517,0.2497769,0.318821788,0.275538385,XArbitraryZVertical,-0.847007037,-0.106638495,0.374819932,0.361548443,0.557840288,0.692408621,0.457585365,0,0,0,-1,-1,362776.3602,unknown,2,2023-02-22T18:09:19.198-08:00,2023-02-22T18:09:11.156-08:00,12,1.32173,0.8531022,1.776166,8.210119,0,0,2023-02-22T18:09:19.198-08:00,698810959.3,0,-0.03,99.89061,1,0.2,0
2023-02-22T18:09:20.335-08:00,1677118160,34.05935371,-118.4488783,98.11525,1.3,0.82,302.6953059,37.80756275,3.593520864,4.572870524,-9999,362777.4963,0.72984314,0.40184021,0.438537598,362777.4913,2.989399039,2.261361426,-0.771426821,0.454372734,0.3113693,0.155781955,0.151486099,0.010238588,0.054146737,XArbitraryZVertical,-0.84799388,-0.09609713,0.367724501,0.369392006,0.55266124,0.697158873,0.456656545,0,0,0,-1,-1,362776.3602,unknown,2,2023-02-22T18:09:19.198-08:00,2023-02-22T18:09:11.156-08:00,12,1.32173,0.8531022,1.776166,8.210119,0,0,2023-02-22T18:09:19.198-08:00,698810959.3,0,-0.03,99.89061,1,0.2,0
2023-02-22T18:09:20.370-08:00,1677118160,34.05935371,-118.4488783,98.11525,1.3,0.82,302.6953059,37.80756275,3.593520864,4.572870524,-9999,362777.5313,0.662796021,0.429275513,0.388275146,362777.5213,2.977645734,2.259033265,-0.768468174,-0.107215643,0.111197203,0.354646266,0.127669871,-0.367550611,-0.04490304,XArbitraryZVertical,-0.848570548,-0.090919847,0.366872881,0.370224171,0.555313587,0.695034683,0.456676781,0,0,0,-1,-1,362776.3602,unknown,2,2023-02-22T18:09:19.198-08:00,2023-02-22T18:09:11.156-08:00,12,1.32173,0.8531022,1.776166,8.210119,0,0,2023-02-22T18:09:19.198-08:00,698810959.3,0,-0.03,99.89061,1,0.2,0
2023-02-22T18:09:20.405-08:00,1677118160,34.05935371,-118.4488783,98.11525,1.3,0.82,302.6953059,37.80756275,3.593520864,4.572870524,-9999,362777.5663,0.574752808,0.742919922,0.481674194,362777.5513,2.967969,2.252885991,-0.75668888,0.166224897,-0.13336581,0.459187776,0.096294224,-0.141260147,-0.086130679,XArbitraryZVertical,-0.849641953,-0.085443374,0.369051553,0.366890802,0.564426601,0.686517656,0.458384037,0,0,0,-1,-1,362776.3602,unknown,2,2023-02-22T18:09:19.198-08:00,2023-02-22T18:09:11.156-08:00,12,1.32173,0.8531022,1.776166,8.210119,0,0,2023-02-22T18:09:19.198-08:00,698810959.3,0,-0.03,99.89061,1,0.2,0
2023-02-22T18:09:20.440-08:00,1677118160,34.05935371,-118.4488783,98.11525,1.3,0.82,302.6953059,37.80756275,3.593520864,4.572870524,-9999,362777.6014,0.516464233,0.531036377,0.611038208,362777.5814,2.954485848,2.237786779,-0.751005861,-0.1781784,-0.206816047,0.278250754,-0.005735993,0.005385041,0.086541176,XArbitraryZVertical,-0.848236031,-0.081263274,0.373654758,0.366434313,0.574339569,0.682374418,0.452216178,0,0,0,-1,-1,362776.3602,unknown,2,2023-02-22T18:09:19.198-08:00,2023-02-22T18:09:11.156-08:00,12,1.32173,0.8531022,1.776166,8.210119,0,0,2023-02-22T18:09:19.198-08:00,698810959.3,0,-0.03,99.89061,1,0.2,0
2023-02-22T18:09:20.475-08:00,1677118160,34.05935371,-118.4488783,98.11525,1.3,0.82,302.6953059,37.80756275,3.593520864,4.572870524,-9999,362777.6364,0.385848999,0.648620605,0.462387085,362777.6114,2.960050443,2.237632622,-0.739973956,-0.311221898,-0.045884825,0.121079423,-0.063825071,-0.143232346,0.154282272,XArbitraryZVertical,-0.849573948,-0.081252962,0.376030721,0.36086409,0.580289245,0.674268663,0.456755877,0,0,0,-1,-1,362776.3602,unknown,2,2023-02-22T18:09:19.198-08:00,2023-02-22T18:09:11.156-08:00,12,1.32173,0.8531022,1.776166,8.210119,0,0,2023-02-22T18:09:19.198-08:00,698810959.3,0,-0.03,99.89061,1,0.2,0
2023-02-22T18:09:20.510-08:00,1677118160,34.05935371,-118.4488783,98.11525,1.3,0.82,302.6953059,37.80756275,3.593520864,4.572870524,-9999,362777.6714,0.303695679,0.395278931,0.34262085,362777.6414,2.962089639,2.240891695,-0.734269505,-0.027633414,0.153929755,0.071408011,-0.183823109,-0.032059908,0.026766956,XArbitraryZVertical,-0.850920498,-0.08029521,0.375673905,0.35826816,0.581802845,0.670045078,0.461026043,0,0,0,-1,-1,362776.3602,unknown,2,2023-02-22T18:09:19.198-08:00,2023-02-22T18:09:11.156-08:00,12,1.32173,0.8531022,1.776166,8.210119,0,0,2023-02-22T18:09:19.198-08:00,698810959.3,0,-0.03,99.89061,1,0.2,0
2023-02-22T18:09:20.545-08:00,1677118160,34.05935371,-118.4488783,98.11525,1.3,0.82,302.6953059,37.80756275,3.593520864,4.572870524,-9999,362777.7065,0.329452515,0.681381226,0.178878784,362777.7015,2.98260683,2.257007598,-0.723496726,-0.619342864,-0.118739255,-0.13810809,-0.308593392,-0.226569235,-0.095295429,XArbitraryZVertical,-0.854639685,-0.0838765,0.373647957,0.350632518,0.579849064,0.662009478,0.474888504,0,0,0,-1,-1,362776.3602,unknown,2,2023-02-22T18:09:19.198-08:00,2023-02-22T18:09:11.156-08:00,12,1.32173,0.8531022,1.776166,8.210119,0,0,2023-02-22T18:09:19.198-08:00,698810959.3,0,-0.03,99.89061,1,0.2,0
2023-02-22T18:09:20.581-08:00,1677118160,34.05935371,-118.4488783,98.11525,1.3,0.82,302.6953059,37.80756275,3.593520864,4.572870524,-9999,362777.7415,0.436386108,0.673736572,0.369781494,362777.7315,2.982657198,2.251679653,-0.727020591,0.665652812,-0.225375816,-0.091936544,-0.169436932,0.117625833,-0.372328758,XArbitraryZVertical,-0.85313299,-0.085583379,0.37554589,0.351859284,0.580554545,0.664646506,0.470320821,0,0,0,-1,-1,362776.3602,unknown,2,2023-02-22T18:09:19.198-08:00,2023-02-22T18:09:11.156-08:00,12,1.32173,0.8531022,1.776166,8.210119,0,0,2023-02-22T18:09:19.198-08:00,698810959.3,0,-0.03,99.89061,1,0.2,0
2023-02-22T18:09:20.615-08:00,1677118160,34.05935371,-118.4488783,98.11525,1.3,0.82,302.6953059,37.80756275,3.593520864,4.572870524,-9999,362777.7765,0.467727661,0.719924927,0.477142334,362777.7615,2.970208061,2.235362199,-0.735375283,0.051805593,-0.362630934,-0.044162728,-0.1231426,-0.138928831,-0.031548262,XArbitraryZVertical,-0.849383106,-0.084974913,0.379349033,0.356962129,0.583759665,0.670865476,0.4573448,0,0,0,-1,-1,362776.3602,unknown,2,2023-02-22T18:09:19.198-08:00,2023-02-22T18:09:11.156-08:00,12,1.32173,0.8531022,1.776166,8.210119,0,0,2023-02-22T18:09:19.198-08:00,698810959.3,0,-0.03,99.89061,1,0.2,0
2023-02-22T18:09:20.650-08:00,1677118160,34.05935371,-118.4488783,98.11525,1.3,0.82,302.6953059,37.80756275,3.593520864,4.572870524,-9999,362777.8116,0.597717285,1.037078857,0.716583252,362777.7916,2.972956177,2.227984508,-0.735292489,-0.033689924,-0.202305585,-0.068115667,-0.113178134,0.105502009,0.039417952,XArbitraryZVertical,-0.847870476,-0.087438095,0.382978847,0.35608636,0.587161899,0.670804083,0.453059524,0,0,0,-1,-1,362776.3602,unknown,2,2023-02-22T18:09:19.198-08:00,2023-02-22T18:09:11.156-08:00,12,1.32173,0.8531022,1.776166,8.210119,0,0,2023-02-22T18:09:19.198-08:00,698810959.3,0,-0.03,99.89061,1,0.2,0
2023-02-22T18:09:20.685-08:00,1677118160,34.05935371,-118.4488783,98.11525,1.3,0.82,302.6953059,37.80756275,3.593520864,4.572870524,-9999,362777.8466,0.624984741,0.737625122,0.678207397,362777.8216,2.971374018,2.22408399,-0.742464891,0.341922909,-0.010137547,-0.18287164,0.012628496,0.360972762,0.26875329,XArbitraryZVertical,-0.846160432,-0.089036494,0.383523725,0.359158185,0.585088849,0.676106095,0.447829962,0,0,0,-1,-1,362776.3602,unknown,2,2023-02-22T18:09:19.198-08:00,2023-02-22T18:09:11.156-08:00,12,1.32173,0.8531022,1.776166,8.210119,0,0,2023-02-22T18:09:19.198-08:00,698810959.3,0,-0.03,99.89061,1,0.2,0
2023-02-22T18:09:20.720-08:00,1677118160,34.05935371,-118.4488783,98.11525,1.3,0.82,302.6953059,37.80756275,3.593520864,4.572870524,-9999,362777.8816,0.651977539,0.779602051,0.584518433,362777.8516,2.965024711,2.221323419,-0.752689437,0.266986728,0.138136074,-0.10900341,0.036228418,0.059376717,0.222440749,XArbitraryZVertical,-0.844430472,-0.089099808,0.382347769,0.364428996,0.580791116,0.683604121,0.442003191,0,0,0,-1,-1,362776.3602,unknown,2,2023-02-22T18:09:19.198-08:00,2023-02-22T18:09:11.156-08:00,12,1.32173,0.8531022,1.776166,8.210119,0,0,2023-02-22T18:09:19.198-08:00,698810959.3,0,-0.03,99.89061,1,0.2,0
2023-02-22T18:09:20.755-08:00,1677118160,34.05935371,-118.4488783,98.11525,1.3,0.82,302.6953059,37.80756275,3.593520864,4.572870524,-9999,362777.9167,0.779174805,0.771514893,0.517120361,362777.9117,2.965565588,2.222105491,-0.754057006,-0.137341797,-0.160527185,0.082116812,0.183665216,0.15113765,0.025440633,XArbitraryZVertical,-0.844356182,-0.089486542,0.381955,0.36491824,0.579701602,0.684601605,0.441890419,0,0,0,-1,-1,362776.3602,unknown,2,2023-02-22T18:09:19.198-08:00,2023-02-22T18:09:11.156-08:00,12,1.32173,0.8531022,1.776166,8.210119,0,0,2023-02-22T18:09:19.198-08:00,698810959.3,0,-0.03,99.89061,1,0.2,0
2023-02-22T18:09:20.790-08:00,1677118160,34.05935371,-118.4488783,98.11525,1.3,0.82,302.6953059,37.80756275,3.593520864,4.572870524,-9999,362777.9517,0.713775635,0.944519043,0.551147461,362777.9417,2.970941898,2.219538219,-0.748452597,-0.268463969,-0.23395893,0.036819838,0.178446949,0.138570845,0.146567404,XArbitraryZVertical,-0.844438805,-0.09098907,0.384672369,0.361484907,0.583882213,0.680505753,0.4427118,0,0,0,-1,-1,362776.3602,unknown,2,2023-02-22T18:09:19.198-08:00,2023-02-22T18:09:11.156-08:00,12,1.32173,0.8531022,1.776166,8.210119,0,0,2023-02-22T18:09:19.198-08:00,698810959.3,0,-0.03,99.89061,1,0.2,0
2023-02-22T18:09:20.826-08:00,1677118160,34.05935371,-118.4488783,98.11525,1.3,0.82,302.6953059,37.80756275,3.593520864,4.572870524,-9999,362777.9867,0.722946167,0.741485596,0.418411255,362777.9717,2.977521718,2.219564892,-0.746850018,0.007416395,-0.042451277,-0.144026637,0.117058933,0.242285073,0.065922201,XArbitraryZVertical,-0.844374025,-0.093409697,0.386032751,0.359563506,0.584738612,0.679330587,0.44338572,0,0,0,-1,-1,362776.3602,unknown,2,2023-02-22T18:09:19.198-08:00,2023-02-22T18:09:11.156-08:00,12,1.32173,0.8531022,1.776166,8.210119,0,0,2023-02-22T18:09:19.198-08:00,698810959.3,0,-0.03,99.89061,1,0.2,0
