loggingTime(txt),locationTimestamp_since1970(s),locationLatitude(WGS84),locationLongitude(WGS84),locationAltitude(m),locationSpeed(m/s),locationSpeedAccuracy(m/s),locationCourse(°),locationCourseAccuracy(°),locationVerticalAccuracy(m),locationHorizontalAccuracy(m),locationFloor(Z),accelerometerTimestamp_sinceReboot(s),accelerometerAccelerationX(G),accelerometerAccelerationY(G),accelerometerAccelerationZ(G),motionTimestamp_sinceReboot(s),motionYaw(rad),motionRoll(rad),motionPitch(rad),motionRotationRateX(rad/s),motionRotationRateY(rad/s),motionRotationRateZ(rad/s),motionUserAccelerationX(G),motionUserAccelerationY(G),motionUserAccelerationZ(G),motionAttitudeReferenceFrame(txt),motionQuaternionX(R),motionQuaternionY(R),motionQuaternionZ(R),motionQuaternionW(R),motionGravityX(G),motionGravityY(G),motionGravityZ(G),motionMagneticFieldX(µT),motionMagneticFieldY(µT),motionMagneticFieldZ(µT),motionHeading(°),motionMagneticFieldCalibrationAccuracy(Z),activityTimestamp_sinceReboot(s),activity(txt),activityActivityConfidence(Z),activityActivityStartDate(txt),pedometerStartDate(txt),pedometerNumberofSteps(N),pedometerAverageActivePace(s/m),pedometerCurrentPace(s/m),pedometerCurrentCadence(steps/s),pedometerDistance(m),pedometerFloorAscended(N),pedometerFloorDescended(N),pedometerEndDate(txt),altimeterTimestamp_sinceReboot(s),altimeterReset(bool),altimeterRelativeAltitude(m),altimeterPressure(kPa),batteryState(N),batteryLevel(R),label
2023-02-14T17:51:16.985-08:00,1676425876,34.0689509,-118.4429567,127.6873,0.29,1.5,173.671875,94.18745488,4,27.14313502,-9999,17045.31334,0.208053589,-0.04045105,-0.97038269,17045.29833,0.081949553,0.209634851,0.030907992,-0.040190872,0.014849658,0.032125939,0.002003327,-0.005550185,0.004998863,XArbitraryZVertical,0.011070369,0.105154841,0.042349088,0.993492091,0.208003372,-0.030903071,-0.977639794,0,0,0,-1,-1,17040.59914,unknown,2,2023-02-14T17:51:12.269-08:00,2023-02-14T17:43:35.488-08:00,142,1.222332,0.823041,1.755188,100.5051,0,0,2023-02-14T17:51:14.831-08:00,698118421.2,0,0.6200027,99.27631,1,0.73,0
2023-02-14T17:51:17.019-08:00,1676425876,34.0689509,-118.4429567,127.6873,0.29,1.5,173.671875,94.18745488,4,27.14313502,-9999,17045.34837,0.205078125,-0.006439209,-0.990280151,17045.32835,0.083195573,0.209802368,0.029751988,-0.008881313,0.008257401,0.029988155,-0.001127928,-0.0041727,-0.001303613,XArbitraryZVertical,0.010426956,0.105221947,0.042908858,0.993467896,0.208174437,-0.0297476,-0.977639258,0,0,0,-1,-1,17040.59914,unknown,2,2023-02-14T17:51:12.269-08:00,2023-02-14T17:43:35.488-08:00,142,1.222332,0.823041,1.755188,100.5051,0,0,2023-02-14T17:51:14.831-08:00,698118421.2,0,0.6200027,99.27631,1,0.73,0
2023-02-14T17:51:17.054-08:00,1676425876,34.0689509,-118.4429567,127.6873,0.29,1.5,173.671875,94.18745488,4,27.14313502,-9999,17045.3834,0.212661743,-0.050079346,-0.966186523,17045.35838,0.083324857,0.210275418,0.031492526,0.088249557,0.017281722,0.012057523,-0.003654465,0.017937507,-0.00981611,XArbitraryZVertical,0.011274659,0.105492243,0.043066229,0.993423161,0.208625764,-0.03148732,-0.977488518,0,0,0,-1,-1,17040.59914,unknown,2,2023-02-14T17:51:12.269-08:00,2023-02-14T17:43:35.488-08:00,142,1.222332,0.823041,1.755188,100.5051,0,0,2023-02-14T17:51:14.831-08:00,698118421.2,0,0.6200027,99.27631,1,0.73,0
2023-02-14T17:51:17.089-08:00,1676425876,34.0689509,-118.4429567,127.6873,0.29,1.5,173.671875,94.18745488,4,27.14313502,-9999,17045.41843,0.211746216,-0.029541016,-0.993057251,17045.38841,0.083659342,0.210745849,0.032441184,-0.045269843,0.005224461,0.021869043,0.003582478,-0.017643858,0.011174142,XArbitraryZVertical,0.011718105,0.105746719,0.043284542,0.99338147,0.209079236,-0.032435492,-0.977360606,0,0,0,-1,-1,17040.59914,unknown,2,2023-02-14T17:51:12.269-08:00,2023-02-14T17:43:35.488-08:00,142,1.222332,0.823041,1.755188,100.5051,0,0,2023-02-14T17:51:14.831-08:00,698118421.2,0,0.6200027,99.27631,1,0.73,0
2023-02-14T17:51:17.124-08:00,1676425876,34.0689509,-118.4429567,127.6873,0.29,1.5,173.671875,94.18745488,4,27.14313502,-9999,17045.45346,0.211853027,-0.041824341,-0.979110718,17045.44846,0.085442957,0.209879405,0.031528643,0.056375243,-0.026995193,0.046917234,0.000486553,-0.002915677,-0.011275828,XArbitraryZVertical,0.011189608,0.105308173,0.04411796,0.993397411,0.208238408,-0.031523418,-0.977569938,0,0,0,-1,-1,17040.59914,unknown,2,2023-02-14T17:51:12.269-08:00,2023-02-14T17:43:35.488-08:00,142,1.222332,0.823041,1.755188,100.5051,0,0,2023-02-14T17:51:14.831-08:00,698118421.2,0,0.6200027,99.27631,1,0.73,0
2023-02-14T17:51:17.161-08:00,1676425876,34.0689509,-118.4429567,127.6873,0.29,1.5,173.671875,94.18745488,4,27.14313502,-9999,17045.4885,0.209457397,-0.042938232,-0.964874268,17045.47849,0.086992602,0.208979396,0.033026846,-0.008958545,-0.032079902,0.067629278,0.002139434,-0.017455243,0.013857782,XArbitraryZVertical,0.011872478,0.10490091,0.044960172,0.993394866,0.207348466,-0.033020843,-0.977709711,0,0,0,-1,-1,17040.59914,unknown,2,2023-02-14T17:51:12.269-08:00,2023-02-14T17:43:35.488-08:00,142,1.222332,0.823041,1.755188,100.5051,0,0,2023-02-14T17:51:14.831-08:00,698118421.2,0,0.6200027,99.27631,1,0.73,0
2023-02-14T17:51:17.195-08:00,1676425877,34.06892312,-118.4429149,127.6362,0.29,1.12,105.8203125,91.13571953,6,21.91022097,-9999,17045.52353,0.204742432,-0.035598755,-0.973266602,17045.50851,0.089046094,0.208253198,0.032583919,-0.029615512,-0.017134374,0.064734221,-0.002478823,-0.003569931,0.004912794,XArbitraryZVertical,0.011561426,0.104542927,0.045953005,0.993390853,0.206641406,-0.032578155,-0.977874219,0,0,0,-1,-1,17040.59914,unknown,2,2023-02-14T17:51:12.269-08:00,2023-02-14T17:43:35.488-08:00,142,1.222332,0.823041,1.755188,100.5051,0,0,2023-02-14T17:51:14.831-08:00,698118421.2,0,0.6200027,99.27631,1,0.73,0
2023-02-14T17:51:17.230-08:00,1676425877,34.06892312,-118.4429149,127.6362,0.29,1.12,105.8203125,91.13571953,6,21.91022097,-9999,17045.55856,0.210952759,-0.029205322,-0.96661377,17045.53854,0.091355817,0.207735342,0.032184431,-0.020572482,-0.020815793,0.079749189,-0.001257896,-0.004121795,0.006848156,XArbitraryZVertical,0.011254431,0.104290264,0.047076699,0.993368359,0.206137657,-0.032178875,-0.977993786,0,0,0,-1,-1,17040.59914,unknown,2,2023-02-14T17:51:12.269-08:00,2023-02-14T17:43:35.488-08:00,142,1.222332,0.823041,1.755188,100.5051,0,0,2023-02-14T17:51:14.831-08:00,698118421.2,0,0.6200027,99.27631,1,0.73,0
2023-02-14T17:51:17.264-08:00,1676425877,34.06892312,-118.4429149,127.6362,0.29,1.12,105.8203125,91.13571953,6,21.91022097,-9999,17045.59359,0.198455811,-0.030441284,-0.958938599,17045.56857,0.093638336,0.207297222,0.032704073,0.000233516,-0.006381794,0.070411377,0.004636705,0.003233515,0.013712049,XArbitraryZVertical,0.011404092,0.104097101,0.048234572,0.993331353,0.205705687,-0.032698244,-0.978067458,0,0,0,-1,-1,17040.59914,unknown,2,2023-02-14T17:51:12.269-08:00,2023-02-14T17:43:35.488-08:00,142,1.222332,0.823041,1.755188,100.5051,0,0,2023-02-14T17:51:14.831-08:00,698118421.2,0,0.6200027,99.27631,1,0.73,0
2023-02-14T17:51:17.300-08:00,1676425877,34.06892312,-118.4429149,127.6362,0.29,1.12,105.8203125,91.13571953,6,21.91022097,-9999,17045.62862,0.206314087,-0.027770996,-0.960037231,17045.59859,0.095537198,0.207644185,0.033290662,-0.001386911,0.029594451,0.057366218,-0.007585242,0.002843216,0.019038498,XArbitraryZVertical,0.01158809,0.104293629,0.04920974,0.993260718,0.206041038,-0.033284511,-0.977977097,0,0,0,-1,-1,17040.59914,unknown,2,2023-02-14T17:51:12.269-08:00,2023-02-14T17:43:35.488-08:00,142,1.222332,0.823041,1.755188,100.5051,0,0,2023-02-14T17:51:14.831-08:00,698118421.2,0,0.6200027,99.27631,1,0.73,0
2023-02-14T17:51:17.334-08:00,1676425877,34.06892312,-118.4429149,127.6362,0.29,1.12,105.8203125,91.13571953,6,21.91022097,-9999,17045.66365,0.209457397,-0.00541687,-0.981460571,17045.65865,0.098556198,0.210395657,0.032910759,0.003328376,0.053355969,0.029043499,-0.002419665,0.010214988,0.007448077,XArbitraryZVertical,0.01117221,0.105668285,0.050704921,0.993045016,0.208733752,-0.032904819,-0.97741878,0,0,0,-1,-1,17040.59914,unknown,2,2023-02-14T17:51:12.269-08:00,2023-02-14T17:43:35.488-08:00,142,1.222332,0.823041,1.755188,100.5051,0,0,2023-02-14T17:51:14.831-08:00,698118421.2,0,0.6200027,99.27631,1,0.73,0
2023-02-14T17:51:17.369-08:00,1676425877,34.06892312,-118.4429149,127.6362,0.29,1.12,105.8203125,91.13571953,6,21.91022097,-9999,17045.69868,0.20135498,-0.033569336,-0.967086792,17045.68867,0.098595221,0.212178372,0.034040569,0.047602363,0.071306743,-0.004156001,-0.009357095,0.019904345,-0.002224624,XArbitraryZVertical,0.011685947,0.106580296,0.050793507,0.992937097,0.21046792,-0.034033995,-0.977008164,0,0,0,-1,-1,17040.59914,unknown,2,2023-02-14T17:51:12.269-08:00,2023-02-14T17:43:35.488-08:00,142,1.222332,0.823041,1.755188,100.5051,0,0,2023-02-14T17:51:14.831-08:00,698118421.2,0,0.6200027,99.27631,1,0.73,0
2023-02-14T17:51:17.405-08:00,1676425877,34.06892312,-118.4429149,127.6362,0.29,1.12,105.8203125,91.13571953,6,21.91022097,-9999,17045.73371,0.207870483,-0.02571106,-0.977127075,17045.7187,0.098290015,0.214216753,0.034250968,-0.022387959,0.06175112,-0.01099623,-0.005441502,-0.004528318,0.009346008,XArbitraryZVertical,0.011755056,0.107595401,0.050665025,0.992833366,0.212457463,-0.034244273,-0.97657007,0,0,0,-1,-1,17040.59914,unknown,2,2023-02-14T17:51:12.269-08:00,2023-02-14T17:43:35.488-08:00,142,1.222332,0.823041,1.755188,100.5051,0,0,2023-02-14T17:51:14.831-08:00,698118421.2,0,0.6200027,99.27631,1,0.73,0
2023-02-14T17:51:17.440-08:00,1676425877,34.06892312,-118.4429149,127.6362,0.29,1.12,105.8203125,91.13571953,6,21.91022097,-9999,17045.76875,0.206924438,-0.024963379,-0.987838745,17045.74873,0.098227415,0.215737447,0.033260201,-0.01200259,0.04309947,-0.001334715,-0.006765604,0.002324492,-0.004876852,XArbitraryZVertical,0.011228037,0.108326629,0.050590025,0.992763732,0.213949442,-0.033254068,-0.976278543,0,0,0,-1,-1,17040.59914,unknown,2,2023-02-14T17:51:12.269-08:00,2023-02-14T17:43:35.488-08:00,142,1.222332,0.823041,1.755188,100.5051,0,0,2023-02-14T17:51:14.831-08:00,698118421.2,0,0.6200027,99.27631,1,0.73,0
2023-02-14T17:51:17.475-08:00,1676425877,34.06892312,-118.4429149,127.6362,0.29,1.12,105.8203125,91.13571953,6,21.91022097,-9999,17045.80378,0.211715698,-0.049835205,-0.9740448,17045.77875,0.09802589,0.2164914,0.033190582,0.031861801,0.027324501,-0.008268521,-0.007257983,0.011425443,-0.010575116,XArbitraryZVertical,0.011185355,0.1086981,0.050490493,0.992728741,0.214685947,-0.033184487,-0.97611922,0,0,0,-1,-1,17040.59914,unknown,2,2023-02-14T17:51:12.269-08:00,2023-02-14T17:43:35.488-08:00,142,1.222332,0,0,100.5051,0,0,2023-02-14T17:51:17.394-08:00,698118677.5,0,1.010002,99.27431,1,0.73,0
2023-02-14T17:51:17.510-08:00,1676425877,34.06892312,-118.4429149,127.6362,0.29,1.12,105.8203125,91.13571953,6,21.91022097,-9999,17045.83881,0.214508057,-0.029312134,-0.976135254,17045.80878,0.097932076,0.21698018,0.033823783,-0.015485207,0.012627116,0.012544982,-0.003442779,-0.016017884,0.001948655,XArbitraryZVertical,0.011492472,0.108955027,0.050480643,0.992697464,0.215158463,-0.033817336,-0.975993454,0,0,0,-1,-1,17040.59914,unknown,2,2023-02-14T17:51:12.269-08:00,2023-02-14T17:43:35.488-08:00,142,1.222332,0,0,100.5051,0,0,2023-02-14T17:51:17.394-08:00,698118677.5,0,1.010002,99.27431,1,0.73,0
2023-02-14T17:51:17.545-08:00,1676425877,34.06892312,-118.4429149,127.6362,0.29,1.12,105.8203125,91.13571953,6,21.91022097,-9999,17045.87384,0.209091187,-0.037216187,-0.978912354,17045.86884,0.099134081,0.215941824,0.032757992,0.006323313,-0.020672116,0.021372097,-0.00617522,-0.001824293,-0.00514853,XArbitraryZVertical,0.010924388,0.108421236,0.051014397,0.992735044,0.214152515,-0.032752134,-0.976251006,0,0,0,-1,-1,17040.59914,unknown,2,2023-02-14T17:51:12.269-08:00,2023-02-14T17:43:35.488-08:00,142,1.222332,0,0,100.5051,0,0,2023-02-14T17:51:17.394-08:00,698118677.5,0,1.010002,99.27431,1,0.73,0
2023-02-14T17:51:17.580-08:00,1676425877,34.06892312,-118.4429149,127.6362,0.29,1.12,105.8203125,91.13571953,6,21.91022097,-9999,17045.90887,0.216949463,-0.038314819,-0.963195801,17045.89886,0.099846632,0.215219188,0.033126706,-0.010288794,-0.026192984,0.021642074,0.003810227,0.000131134,0.006483972,XArbitraryZVertical,0.011087373,0.108075242,0.051383764,0.992751966,0.213444397,-0.033120647,-0.97639364,0,0,0,-1,-1,17040.59914,unknown,2,2023-02-14T17:51:12.269-08:00,2023-02-14T17:43:35.488-08:00,142,1.222332,0,0,100.5051,0,0,2023-02-14T17:51:17.394-08:00,698118677.5,0,1.010002,99.27431,1,0.73,0
2023-02-14T17:51:17.615-08:00,1676425877,34.06892312,-118.4429149,127.6362,0.29,1.12,105.8203125,91.13571953,6,21.91022097,-9999,17045.9439,0.209686279,-0.035369873,-0.969589233,17045.92889,0.100548202,0.214529689,0.032659759,-0.036169391,-0.020869857,0.014697482,0.003152713,0.00018324,0.013817549,XArbitraryZVertical,0.010835467,0.107725617,0.051703421,0.992776187,0.212774396,-0.032653954,-0.976555586,0,0,0,-1,-1,17040.59914,unknown,2,2023-02-14T17:51:12.269-08:00,2023-02-14T17:43:35.488-08:00,142,1.222332,0,0,100.5051,0,0,2023-02-14T17:51:17.394-08:00,698118677.5,0,1.010002,99.27431,1,0.73,0
2023-02-14T17:51:17.650-08:00,1676425877,34.06892312,-118.4429149,127.6362,0.29,1.12,105.8203125,91.13571953,6,21.91022097,-9999,17045.97893,0.210723877,-0.028823853,-0.974685669,17045.95892,0.101141326,0.213896265,0.031776608,-0.017369127,-0.015074818,0.004729403,-0.00354366,0.008852549,0.001543999,XArbitraryZVertical,0.010381514,0.107392967,0.051947701,0.992804332,0.212161809,-0.031771261,-0.976717949,0,0,0,-1,-1,17040.59914,unknown,2,2023-02-14T17:51:12.269-08:00,2023-02-14T17:43:35.488-08:00,142,1.222332,0,0,100.5051,0,0,2023-02-14T17:51:17.394-08:00,698118677.5,0,1.010002,99.27431,1,0.73,0
2023-02-14T17:51:17.685-08:00,1676425877,34.06892312,-118.4429149,127.6362,0.29,1.12,105.8203125,91.13571953,6,21.91022097,-9999,17046.01397,0.209121704,-0.047027588,-0.958892822,17045.98894,0.101132011,0.21365464,0.031893728,-0.001911394,-0.013152615,0.000994219,-0.000758648,5.85E-05,0.006459177,XArbitraryZVertical,0.010446439,0.107275823,0.051948014,0.992816251,0.211925015,-0.031888321,-0.976765513,0,0,0,-1,-1,17040.59914,unknown,2,2023-02-14T17:51:12.269-08:00,2023-02-14T17:43:35.488-08:00,142,1.222332,0,0,100.5051,0,0,2023-02-14T17:51:17.394-08:00,698118677.5,0,1.010002,99.27431,1,0.73,0
2023-02-14T17:51:17.720-08:00,1676425877,34.06892312,-118.4429149,127.6362,0.29,1.12,105.8203125,91.13571953,6,21.91022097,-9999,17046.049,0.208114624,-0.022216797,-0.983306885,17046.01897,0.101589313,0.213257402,0.030909562,-0.062886223,-0.018782139,0.009235837,-0.002421841,-0.01612296,0.017987013,XArbitraryZVertical,0.009943634,0.107057001,0.052121044,0.992835949,0.21154353,-0.03090464,-0.976879835,0,0,0,-1,-1,17040.59914,unknown,2,2023-02-14T17:51:12.269-08:00,2023-02-14T17:43:35.488-08:00,142,1.222332,0,0,100.5051,0,0,2023-02-14T17:51:17.394-08:00,698118677.5,0,1.010002,99.27431,1,0.73,0
2023-02-14T17:51:17.755-08:00,1676425877,34.06892312,-118.4429149,127.6362,0.29,1.12,105.8203125,91.13571953,6,21.91022097,-9999,17046.08403,0.213088989,-0.042724609,-0.967086792,17046.07902,0.101875817,0.212731604,0.029308753,-0.022185348,-0.009701557,0.000984033,0.00223206,-0.004127461,-0.000577331,XArbitraryZVertical,0.009147214,0.106758164,0.052176411,0.992872892,0.211040035,-0.029304557,-0.977038026,0,0,0,-1,-1,17040.59914,unknown,2,2023-02-14T17:51:12.269-08:00,2023-02-14T17:43:35.488-08:00,142,1.222332,0,0,100.5051,0,0,2023-02-14T17:51:17.394-08:00,698118677.5,0,1.010002,99.27431,1,0.73,0
2023-02-14T17:51:17.790-08:00,1676425877,34.06892312,-118.4429149,127.6362,0.29,1.12,105.8203125,91.13571953,6,21.91022097,-9999,17046.11906,0.20022583,-0.029251099,-0.973495483,17046.10905,0.102293397,0.212504379,0.028035099,-0.071511455,-0.000125697,-0.000624749,-0.004542157,-0.011259967,0.011835396,XArbitraryZVertical,0.008498483,0.106615869,0.052315698,0.992886593,0.210825726,-0.028031427,-0.977121651,0,0,0,-1,-1,17040.59914,unknown,2,2023-02-14T17:51:12.269-08:00,2023-02-14T17:43:35.488-08:00,142,1.222332,0,0,100.5051,0,0,2023-02-14T17:51:17.394-08:00,698118677.5,0,1.010002,99.27431,1,0.73,0
2023-02-14T17:51:17.826-08:00,1676425877,34.06892312,-118.4429149,127.6362,0.29,1.12,105.8203125,91.13571953,6,21.91022097,-9999,17046.15409,0.210510254,-0.04296875,-0.980041504,17046.13908,0.102255345,0.212557563,0.026944096,0.000738558,0.01452109,-0.011667247,-0.005378649,0.001946928,-0.002398193,XArbitraryZVertical,0.007957416,0.106615184,0.052239629,0.992895171,0.21088402,-0.026940836,-0.977139771,0,0,0,-1,-1,17040.59914,unknown,2,2023-02-14T17:51:12.269-08:00,2023-02-14T17:43:35.488-08:00,142,1.222332,0,0,100.5051,0,0,2023-02-14T17:51:17.394-08:00,698118677.5,0,1.010002,99.27431,1,0.73,0
2023-02-14T17:51:17.860-08:00,1676425877,34.06892312,-118.4429149,127.6362,0.29,1.12,105.8203125,91.13571953,6,21.91022097,-9999,17046.18912,0.20980835,-0.036270142,-0.967712402,17046.1691,0.102166005,0.213143076,0.02688472,-0.023241024,0.019592416,0.002984066,0.005599827,-0.018650757,0.000455201,XArbitraryZVertical,0.007917418,0.106904032,0.052194469,0.992866851,0.211456448,-0.026881482,-0.977017701,0,0,0,-1,-1,17040.59914,unknown,2,2023-02-14T17:51:12.269-08:00,2023-02-14T17:43:35.488-08:00,142,1.222332,0,0,100.5051,0,0,2023-02-14T17:51:17.394-08:00,698118677.5,0,1.010002,99.27431,1,0.73,0
2023-02-14T17:51:17.895-08:00,1676425877,34.06892312,-118.4429149,127.6362,0.29,1.12,105.8203125,91.13571953,6,21.91022097,-9999,17046.22415,0.211090088,-0.028259277,-0.98399353,17046.19913,0.102375165,0.21366504,0.02632692,-0.022164308,0.024164397,-0.001213141,-0.003839657,-0.005597521,0.005638719,XArbitraryZVertical,0.007615646,0.107150188,0.052270859,0.9928386,0.21196954,-0.026323879,-0.976921678,0,0,0,-1,-1,17040.59914,unknown,2,2023-02-14T17:51:12.269-08:00,2023-02-14T17:43:35.488-08:00,142,1.222332,0,0,100.5051,0,0,2023-02-14T17:51:17.394-08:00,698118677.5,0,1.010002,99.27431,1,0.73,0
2023-02-14T17:51:17.930-08:00,1676425877,34.06892312,-118.4429149,127.6362,0.29,1.12,105.8203125,91.13571953,6,21.91022097,-9999,17046.25918,0.220611572,-0.03288269,-0.975280762,17046.22916,0.102305427,0.214324218,0.025895437,-0.007727738,0.029711094,-0.007038474,-0.00152576,-0.002366746,-0.007200778,XArbitraryZVertical,0.007387945,0.107466473,0.052215845,0.992809105,0.212615848,-0.025892543,-0.976792753,0,0,0,-1,-1,17040.59914,unknown,2,2023-02-14T17:51:12.269-08:00,2023-02-14T17:43:35.488-08:00,142,1.222332,0,0,100.5051,0,0,2023-02-14T17:51:17.394-08:00,698118677.5,0,1.010002,99.27431,1,0.73,0
2023-02-14T17:51:17.965-08:00,1676425877,34.06892312,-118.4429149,127.6362,0.29,1.12,105.8203125,91.13571953,6,21.91022097,-9999,17046.29421,0.218399048,-0.023223877,-0.984603882,17046.28921,0.102231232,0.215227013,0.026017329,-0.011404391,-0.003842537,0.004536389,0.010074854,0.002195412,-0.006801128,XArbitraryZVertical,0.007428891,0.107917348,0.052188841,0.992761332,0.213496923,-0.026014393,-0.976597309,0,0,0,-1,-1,17040.59914,unknown,2,2023-02-14T17:51:12.269-08:00,2023-02-14T17:43:35.488-08:00,142,1.222332,0,0,100.5051,0,0,2023-02-14T17:51:17.394-08:00,698118677.5,0,1.010002,99.27431,1,0.73,0
2023-02-14T17:51:18.000-08:00,1676425877,34.06892312,-118.4429149,127.6362,0.29,1.12,105.8203125,91.13571953,6,21.91022097,-9999,17046.32925,0.214630127,-0.040054321,-0.96395874,17046.31924,0.102416638,0.215124044,0.025769046,-0.020516662,0.001554825,0.006799445,0.005733714,-0.008001516,0.002290905,XArbitraryZVertical,0.007298317,0.107860789,0.052267268,0.99276424,0.213397741,-0.025766194,-0.976625562,0,0,0,-1,-1,17040.59914,unknown,2,2023-02-14T17:51:12.269-08:00,2023-02-14T17:43:35.488-08:00,142,1.222332,0,0,100.5051,0,0,2023-02-14T17:51:17.394-08:00,698118677.5,0,1.010002,99.27431,1,0.73,0
2023-02-14T17:51:18.035-08:00,1676425877,34.06892312,-118.4429149,127.6362,0.29,1.12,105.8203125,91.13571953,6,21.91022097,-9999,17046.36428,0.215377808,-0.032089233,-0.966552734,17046.34926,0.103003555,0.215346941,0.024955549,-0.046151828,0.004132299,0.018762331,0.000369415,-0.011027277,0.016118407,XArbitraryZVertical,0.006856954,0.107953298,0.052516022,0.992744247,0.213619828,-0.024952959,-0.976598144,0,0,0,-1,-1,17040.59914,unknown,2,2023-02-14T17:51:12.269-08:00,2023-02-14T17:43:35.488-08:00,142,1.222332,0,0,100.5051,0,0,2023-02-14T17:51:17.394-08:00,698118677.5,0,1.010002,99.27431,1,0.73,0
2023-02-14T17:51:18.070-08:00,1676425877,34.06892312,-118.4429149,127.6362,0.29,1.12,105.8203125,91.13571953,6,21.91022097,-9999,17046.39931,0.209182739,-0.017837524,-0.978927612,17046.37929,0.103833994,0.21573318,0.024116181,-0.015790192,0.013993451,0.022233497,-0.000973478,-0.004298035,0.0060004,XArbitraryZVertical,0.006385227,0.108126756,0.052884689,0.992708899,0.214001432,-0.024113843,-0.976535678,0,0,0,-1,-1,17040.59914,unknown,2,2023-02-14T17:51:12.269-08:00,2023-02-14T17:43:35.488-08:00,142,1.222332,0,0,100.5051,0,0,2023-02-14T17:51:17.394-08:00,698118677.5,0,1.010002,99.27431,1,0.73,0
2023-02-14T17:51:18.106-08:00,1676425877,34.06892312,-118.4429149,127.6362,0.29,1.12,105.8203125,91.13571953,6,21.91022097,-9999,17046.43434,0.212966919,-0.036300659,-0.968612671,17046.40932,0.104347769,0.216491551,0.024604203,0.018162875,0.028856155,0.014656868,-0.006487429,0.004582178,0.000531435,XArbitraryZVertical,0.006579552,0.108517123,0.053168275,0.992649952,0.214739382,-0.02460172,-0.976361513,0,0,0,-1,-1,17040.59914,unknown,2,2023-02-14T17:51:12.269-08:00,2023-02-14T17:43:35.488-08:00,142,1.222332,0,0,100.5051,0,0,2023-02-14T17:51:17.394-08:00,698118677.5,0,1.010002,99.27431,1,0.73,0
2023-02-14T17:51:18.141-08:00,1676425877,34.06892312,-118.4429149,127.6362,0.29,1.12,105.8203125,91.13571953,6,21.91022097,-9999,17046.46937,0.218414307,-0.029663086,-0.970321655,17046.43934,0.104837396,0.217493855,0.024929137,-0.030190278,0.030596863,0.020458397,-0.002749264,-0.011374114,0.007525265,XArbitraryZVertical,0.006687502,0.109024422,0.053432067,0.992579476,0.215716153,-0.024926554,-0.976137877,0,0,0,-1,-1,17040.59914,unknown,2,2023-02-14T17:51:12.269-08:00,2023-02-14T17:43:35.488-08:00,142,1.222332,0,0,100.5051,0,0,2023-02-14T17:51:17.394-08:00,698118677.5,0,1.010002,99.27431,1,0.73,0
2023-02-14T17:51:18.176-08:00,1676425877,34.06892312,-118.4429149,127.6362,0.29,1.12,105.8203125,91.13571953,6,21.91022097,-9999,17046.5044,0.221786499,-0.015655518,-0.979522705,17046.4994,0.106860013,0.218619232,0.02394097,0.005546682,0.004959344,0.039993782,0.006965622,0.003003612,-0.005206764,XArbitraryZVertical,0.006056177,0.109564032,0.05438604,0.992472228,0.216819778,-0.023938682,-0.975918114,0,0,0,-1,-1,17040.59914,unknown,2,2023-02-14T17:51:12.269-08:00,2023-02-14T17:43:35.488-08:00,142,1.222332,0,0,100.5051,0,0,2023-02-14T17:51:17.394-08:00,698118677.5,0,1.010002,99.27431,1,0.73,0
2023-02-14T17:51:18.211-08:00,1676425878,34.06890359,-118.4428912,127.9516,0.19,1.02,62.578125,94.29358919,6,20.23286467,-9999,17046.53943,0.214447021,-0.032455444,-0.960205078,17046.52942,0.108199052,0.218669624,0.024574229,-0.012280305,0.013780799,0.050935376,-0.008018568,0.006108608,0.012543797,XArbitraryZVertical,0.006295712,0.109609665,0.055084948,0.992427163,0.216865614,-0.024571756,-0.975892186,0,0,0,-1,-1,17040.59914,unknown,2,2023-02-14T17:51:12.269-08:00,2023-02-14T17:43:35.488-08:00,142,1.222332,0,0,100.5051,0,0,2023-02-14T17:51:17.394-08:00,698118677.5,0,1.010002,99.27431,1,0.73,0
2023-02-14T17:51:18.245-08:00,1676425878,34.06890359,-118.4428912,127.9516,0.19,1.02,62.578125,94.29358919,6,20.23286467,-9999,17046.57447,0.222076416,-0.011032104,-0.966308594,17046.55945,0.110128913,0.218972776,0.023648364,-0.072614536,0.009184181,0.05588074,0.004131913,-0.01093027,0.016436577,XArbitraryZVertical,0.005721985,0.109741397,0.055993287,0.992365213,0.217166305,-0.023646159,-0.975848198,0,0,0,-1,-1,17040.59914,unknown,2,2023-02-14T17:51:12.269-08:00,2023-02-14T17:43:35.488-08:00,142,1.222332,0,0,100.5051,0,0,2023-02-14T17:51:17.394-08:00,698118677.5,0,1.010002,99.27431,1,0.73,0
2023-02-14T17:51:18.280-08:00,1676425878,34.06890359,-118.4428912,127.9516,0.19,1.02,62.578125,94.29358919,6,20.23286467,-9999,17046.6095,0.201980591,-0.023803711,-0.960693359,17046.58948,0.111955423,0.219241549,0.022571169,-0.027301865,0.012385235,0.04962527,0.005252749,0.008943142,0.011367083,XArbitraryZVertical,0.005079586,0.109850652,0.056841817,0.992308436,0.217433989,-0.022569252,-0.975814044,0,0,0,-1,-1,17040.59914,unknown,2,2023-02-14T17:51:12.269-08:00,2023-02-14T17:43:35.488-08:00,142,1.222332,0,0,100.5051,0,0,2023-02-14T17:51:17.394-08:00,698118677.5,0,1.010002,99.27431,1,0.73,0
2023-02-14T17:51:18.316-08:00,1676425878,34.06890359,-118.4428912,127.9516,0.19,1.02,62.578125,94.29358919,6,20.23286467,-9999,17046.64453,0.218414307,-0.0443573,-0.971130371,17046.61951,0.113481874,0.220061711,0.021913378,-0.034107786,0.050829232,0.041077755,-0.016058505,-0.001205452,0.015749812,XArbitraryZVertical,0.004645739,0.110243264,0.057565352,0.99222527,0.21823743,-0.021911625,-0.975649655,0,0,0,-1,-1,17040.59914,unknown,2,2023-02-14T17:51:12.269-08:00,2023-02-14T17:43:35.488-08:00,142,1.222332,0,0,100.5051,0,0,2023-02-14T17:51:17.394-08:00,698118677.5,0,1.010002,99.27431,1,0.73,0
2023-02-14T17:51:18.351-08:00,1676425878,34.06890359,-118.4428912,127.9516,0.19,1.02,62.578125,94.29358919,6,20.23286467,-9999,17046.67956,0.251983643,-0.067947388,-0.976837158,17046.64953,0.115112914,0.221863834,0.021266535,-0.042206034,0.05727208,0.065048933,-0.001584083,-0.023092382,0.004138052,XArbitraryZVertical,0.004182326,0.111122884,0.058343052,0.992083746,0.219998389,-0.021264931,-0.975268424,0,0,0,-1,-1,17040.59914,unknown,2,2023-02-14T17:51:12.269-08:00,2023-02-14T17:43:35.488-08:00,142,1.222332,0,0,100.5051,0,0,2023-02-14T17:51:17.394-08:00,698118677.5,0,1.010002,99.27431,1,0.73,0
2023-02-14T17:51:18.386-08:00,1676425878,34.06890359,-118.4428912,127.9516,0.19,1.02,62.578125,94.29358919,6,20.23286467,-9999,17046.71459,0.234893799,-0.063903809,-0.979934692,17046.70959,0.125341636,0.221665917,0.019886635,-0.083396457,-0.039155386,0.266306013,0.018667996,-0.058392279,0.006177664,XArbitraryZVertical,0.002935844,0.111002509,0.063340064,0.991795256,0.219811618,-0.019885324,-0.975339651,0,0,0,-1,-1,17040.59914,unknown,2,2023-02-14T17:51:12.269-08:00,2023-02-14T17:43:35.488-08:00,142,1.222332,0,0,100.5051,0,0,2023-02-14T17:51:17.394-08:00,698118677.5,0,1.010002,99.27431,1,0.73,0
2023-02-14T17:51:18.421-08:00,1676425878,34.06890359,-118.4428912,127.9516,0.19,1.02,62.578125,94.29358919,6,20.23286467,-9999,17046.74962,0.225540161,-0.023208618,-0.980453491,17046.73961,0.134351769,0.22012234,0.019764521,-0.078399241,-0.047545411,0.295651257,0.010148212,-0.02166439,-0.006222904,XArbitraryZVertical,0.002427522,0.110245346,0.067798962,0.991586227,0.218306363,-0.019763233,-0.975680113,0,0,0,-1,-1,17040.59914,unknown,2,2023-02-14T17:51:12.269-08:00,2023-02-14T17:43:35.488-08:00,142,1.222332,0,0,100.5051,0,0,2023-02-14T17:51:17.394-08:00,698118677.5,0,1.010002,99.27431,1,0.73,0
2023-02-14T17:51:18.456-08:00,1676425878,34.06890359,-118.4428912,127.9516,0.19,1.02,62.578125,94.29358919,6,20.23286467,-9999,17046.78465,0.221130371,0.019851685,-0.994720459,17046.76964,0.143283063,0.219220916,0.020395457,-0.07441286,-0.043162115,0.272554189,0.012998953,0.013191883,-0.011348963,XArbitraryZVertical,0.002280515,0.109830394,0.072259659,0.991317577,0.21742402,-0.020394044,-0.975864172,0,0,0,-1,-1,17040.59914,unknown,2,2023-02-14T17:51:12.269-08:00,2023-02-14T17:43:35.488-08:00,142,1.222332,0,0,100.5051,0,0,2023-02-14T17:51:17.394-08:00,698118677.5,0,1.010002,99.27431,1,0.73,0
2023-02-14T17:51:18.491-08:00,1676425878,34.06890359,-118.4428912,127.9516,0.19,1.02,62.578125,94.29358919,6,20.23286467,-9999,17046.81968,0.202529907,0.02482605,-0.976623535,17046.79967,0.150747552,0.218144792,0.02092598,-0.038762778,-0.027408849,0.212890923,-0.003846973,0.042805545,-0.017534912,XArbitraryZVertical,0.002174402,0.109324435,0.075986552,0.991095098,0.216371372,-0.020924453,-0.976086855,0,0,0,-1,-1,17040.59914,unknown,2,2023-02-14T17:51:12.269-08:00,2023-02-14T17:43:35.488-08:00,142,1.222332,0,0,100.5051,0,0,2023-02-14T17:51:17.394-08:00,698118677.5,0,1.010002,99.27431,1,0.73,0
2023-02-14T17:51:18.526-08:00,1676425878,34.06890359,-118.4428912,127.9516,0.19,1.02,62.578125,94.29358919,6,20.23286467,-9999,17046.85472,0.205749512,0.011627197,-0.967559814,17046.82969,0.155996115,0.217746401,0.021496673,-0.011881043,0.007373366,0.139827237,-0.014563873,0.043742318,0.00265044,XArbitraryZVertical,0.002185954,0.109154162,0.078617503,0.990908547,0.215979874,-0.021495016,-0.976161182,0,0,0,-1,-1,17040.59914,unknown,2,2023-02-14T17:51:12.269-08:00,2023-02-14T17:43:35.488-08:00,142,1.222332,0,0,100.5051,0,0,2023-02-14T17:51:17.394-08:00,698118677.5,0,1.010002,99.27431,1,0.73,0
2023-02-14T17:51:18.561-08:00,1676425878,34.06890359,-118.4428912,127.9516,0.19,1.02,62.578125,94.29358919,6,20.23286467,-9999,17046.88975,0.208007813,-0.001312256,-0.955566406,17046.85972,0.15913244,0.218501445,0.021874638,0.001104796,0.042179883,0.077788733,-0.010965571,0.033500079,0.008430004,XArbitraryZVertical,0.002171784,0.109546188,0.080192436,0.990739196,0.216715083,-0.021872895,-0.975989819,0,0,0,-1,-1,17040.59914,unknown,2,2023-02-14T17:51:12.269-08:00,2023-02-14T17:43:35.488-08:00,142,1.222332,0,0,100.5051,0,0,2023-02-14T17:51:17.394-08:00,698118677.5,0,1.010002,99.27431,1,0.73,0
2023-02-14T17:51:18.596-08:00,1676425878,34.06890359,-118.4428912,127.9516,0.19,1.02,62.578125,94.29358919,6,20.23286467,-9999,17046.92478,0.212722778,0.006591797,-0.962646484,17046.91977,0.162059899,0.221586582,0.021018316,0.010613292,0.080998316,0.025641676,-0.012591094,0.029485382,0.012550712,XArbitraryZVertical,0.001461338,0.111043283,0.081598716,0.990458975,0.21972914,-0.021016769,-0.975334525,0,0,0,-1,-1,17040.59914,unknown,2,2023-02-14T17:51:12.269-08:00,2023-02-14T17:43:35.488-08:00,142,1.222332,0,0,100.5051,0,0,2023-02-14T17:51:17.394-08:00,698118677.5,0,1.010002,99.27431,1,0.73,0
2023-02-14T17:51:18.631-08:00,1676425878,34.06890359,-118.4428912,127.9516,0.19,1.02,62.578125,94.29358919,6,20.23286467,-9999,17046.95981,0.215591431,-0.014328003,-0.947128296,17046.9498,0.162593047,0.22378478,0.019999301,-0.037303101,0.088046707,0.01252371,-0.007109791,0.014809966,0.022934675,XArbitraryZVertical,0.00083709,0.11209166,0.081807991,0.990324308,0.221877232,-0.019997967,-0.97486949,0,0,0,-1,-1,17040.59914,unknown,2,2023-02-14T17:51:12.269-08:00,2023-02-14T17:43:35.488-08:00,142,1.222332,0,0,100.5051,0,0,2023-02-14T17:51:17.394-08:00,698118677.5,0,1.010002,99.27431,1,0.73,0
2023-02-14T17:51:18.675-08:00,1676425878,34.06890359,-118.4428912,127.9516,0.19,1.02,62.578125,94.29358919,6,20.23286467,-9999,17046.99484,0.213317871,0.002670288,-0.965744019,17046.97983,0.163187941,0.22633038,0.018616463,-0.020184088,0.091874331,0.010729738,-0.008940548,0.010467181,0.028984547,XArbitraryZVertical,1.45E-05,0.113297034,0.082026244,0.990169365,0.224364132,-0.018615387,-0.974327564,0,0,0,-1,-1,17040.59914,unknown,2,2023-02-14T17:51:12.269-08:00,2023-02-14T17:43:35.488-08:00,142,1.222332,0,0,100.5051,0,0,2023-02-14T17:51:17.394-08:00,698118677.5,0,1.010002,99.27431,1,0.73,0
2023-02-14T17:51:18.701-08:00,1676425878,34.06890359,-118.4428912,127.9516,0.19,1.02,62.578125,94.29358919,6,20.23286467,-9999,17047.02987,0.224487305,-0.008804321,-0.969589233,17047.00985,0.163358671,0.229057005,0.018514131,0.01209188,0.100848585,0.008771149,-0.013855055,0.01411853,0.006657779,XArbitraryZVertical,-0.000157772,0.114642743,0.082104915,0.990007877,0.227020338,-0.018513074,-0.973714054,0,0,0,-1,-1,17040.59914,unknown,2,2023-02-14T17:51:12.269-08:00,2023-02-14T17:43:35.488-08:00,142,1.222332,0,0,100.5051,0,0,2023-02-14T17:51:17.394-08:00,698118677.5,0,1.010002,99.27431,1,0.73,0
2023-02-14T17:51:18.736-08:00,1676425878,34.06890359,-118.4428912,127.9516,0.19,1.02,62.578125,94.29358919,6,20.23286467,-9999,17047.0649,0.233169556,-0.002471924,-0.980728149,17047.03988,0.163532083,0.231927786,0.017770271,-0.048481349,0.088526413,-0.006980916,-0.002995923,0.007637488,0.001361251,XArbitraryZVertical,-0.000653902,0.11603386,0.082147811,0.989842076,0.229817823,-0.017769337,-0.973071456,0,0,0,-1,-1,17040.59914,unknown,2,2023-02-14T17:51:12.269-08:00,2023-02-14T17:43:35.488-08:00,142,1.222332,0,0,100.5051,0,0,2023-02-14T17:51:17.394-08:00,698118677.5,0,1.010002,99.27431,1,0.73,0
2023-02-14T17:51:18.771-08:00,1676425878,34.06890359,-118.4428912,127.9516,0.19,1.02,62.578125,94.29358919,6,20.23286467,-9999,17047.09994,0.23815918,-0.009002686,-0.987182617,17047.06991,0.163515758,0.234056881,0.01596422,-0.044869088,0.066310853,-0.016411435,0.001273409,0.013491604,-0.00811857,XArbitraryZVertical,-0.00163429,0.117015178,0.082034523,0.98973483,0.231896132,-0.015963541,-0.97260958,0,0,0,-1,-1,17040.59914,unknown,2,2023-02-14T17:51:12.269-08:00,2023-02-14T17:43:35.488-08:00,142,1.222332,0,0,100.5051,0,0,2023-02-14T17:51:17.394-08:00,698118677.5,0,1.010002,99.27431,1,0.73,0
2023-02-14T17:51:18.806-08:00,1676425878,34.06890359,-118.4428912,127.9516,0.19,1.02,62.578125,94.29358919,6,20.23286467,-9999,17047.13497,0.240493774,-0.025436401,-0.972320557,17047.12996,0.162904523,0.235872067,0.013946063,-0.041020129,0.015619578,-0.01374408,0.006505057,-0.009201985,-0.006161928,XArbitraryZVertical,-0.002671497,0.117833278,0.081612829,0.989670391,0.233668268,-0.01394561,-0.972216368,0,0,0,-1,-1,17040.59914,unknown,2,2023-02-14T17:51:12.269-08:00,2023-02-14T17:43:35.488-08:00,142,1.222332,0,0,100.5051,0,0,2023-02-14T17:51:17.394-08:00,698118677.5,0,1.010002,99.27431,1,0.73,0
2023-02-14T17:51:18.841-08:00,1676425878,34.06890359,-118.4428912,127.9516,0.19,1.02,62.578125,94.29358919,6,20.23286467,-9999,17047.17,0.239868164,-0.016662598,-0.974899292,17047.15999,0.163128261,0.236070114,0.012131342,-0.05866506,-0.000920783,0.008231392,0.005269393,-0.017059032,0.002344429,XArbitraryZVertical,-0.00359086,0.11785826,0.081617259,0.989664158,0.233866349,-0.012131045,-0.972193062,0,0,0,-1,-1,17040.59914,unknown,2,2023-02-14T17:51:12.269-08:00,2023-02-14T17:43:35.488-08:00,142,1.222332,0,0,100.5051,0,0,2023-02-14T17:51:17.394-08:00,698118677.5,0,1.010002,99.27431,1,0.73,0
2023-02-14T17:51:18.876-08:00,1676425878,34.06890359,-118.4428912,127.9516,0.19,1.02,62.578125,94.29358919,6,20.23286467,-9999,17047.20503,0.241073608,-0.013809204,-0.969970703,17047.19002,0.163848686,0.235879436,0.010696182,-0.039385639,-0.014211289,0.016553238,0.00827381,-0.010284869,-5.96E-06,XArbitraryZVertical,-0.004335733,0.117704779,0.081890274,0.989656852,0.233684793,-0.010695978,-0.972253561,0,0,0,-1,-1,17040.59914,unknown,2,2023-02-14T17:51:12.269-08:00,2023-02-14T17:43:35.488-08:00,142,1.222332,0,0,100.5051,0,0,2023-02-14T17:51:17.394-08:00,698118677.5,0,1.010002,99.27431,1,0.73,0
2023-02-14T17:51:18.911-08:00,1676425878,34.06890359,-118.4428912,127.9516,0.19,1.02,62.578125,94.29358919,6,20.23286467,-9999,17047.24006,0.246124268,-0.025466919,-0.974136353,17047.22004,0.164474414,0.235606531,0.010015166,-0.042749159,-0.013989647,0.011044589,0.009132609,-0.004221465,-0.004177272,XArbitraryZVertical,-0.00469836,0.11754081,0.082160755,0.989652249,0.233421102,-0.010014998,-0.972324193,0,0,0,-1,-1,17040.59914,unknown,2,2023-02-14T17:51:12.269-08:00,2023-02-14T17:43:35.488-08:00,142,1.222332,0,0,100.5051,0,0,2023-02-14T17:51:17.394-08:00,698118677.5,0,1.010002,99.27431,1,0.73,0
2023-02-14T17:51:18.946-08:00,1676425878,34.06890359,-118.4428912,127.9516,0.19,1.02,62.578125,94.29358919,6,20.23286467,-9999,17047.27509,0.240646362,-0.015090942,-0.965744019,17047.25007,0.165751441,0.235066016,0.008705553,-0.065385066,-0.033530124,0.038669325,0.013210639,-0.014014908,-0.001628458,XArbitraryZVertical,-0.005399113,0.117216854,0.082717658,0.989640772,0.232898355,-0.008705443,-0.972462118,0,0,0,-1,-1,17040.59914,unknown,2,2023-02-14T17:51:12.269-08:00,2023-02-14T17:43:35.488-08:00,142,1.222332,0,0,100.5051,0,0,2023-02-14T17:51:17.394-08:00,698118677.5,0,1.010002,99.27431,1,0.73,0
2023-02-14T17:51:18.981-08:00,1676425878,34.06890359,-118.4428912,127.9516,0.19,1.02,62.578125,94.29358919,6,20.23286467,-9999,17047.31012,0.238113403,-0.016235352,-0.968582153,17047.2801,0.167387121,0.234218615,0.007874685,-0.034089729,-0.030008094,0.049643412,0.008570552,-0.007216352,0.006921828,XArbitraryZVertical,-0.005870741,0.116758813,0.083481089,0.989628168,0.23207581,-0.007874603,-0.972665846,0,0,0,-1,-1,17040.59914,unknown,2,2023-02-14T17:51:12.269-08:00,2023-02-14T17:43:35.488-08:00,142,1.222332,0,0,100.5051,0,0,2023-02-14T17:51:17.394-08:00,698118677.5,0,1.010002,99.27431,1,0.73,0
2023-02-14T17:51:19.016-08:00,1676425878,34.06890359,-118.4428912,127.9516,0.19,1.02,62.578125,94.29358919,6,20.23286467,-9999,17047.34516,0.234039307,-0.013427734,-0.969451904,17047.34015,0.171287855,0.233149945,0.005820106,-0.079465255,-0.025256682,0.058896266,0.004846141,-0.009698129,0.00915134,XArbitraryZVertical,-0.007069422,0.116131558,0.085295571,0.989539333,0.231039464,-0.005820073,-0.972926974,0,0,0,-1,-1,17040.59914,unknown,2,2023-02-14T17:51:12.269-08:00,2023-02-14T17:43:35.488-08:00,142,1.222332,0,0,100.5051,0,0,2023-02-14T17:51:17.394-08:00,698118677.5,0,1.010002,99.27431,1,0.73,0
2023-02-14T17:51:19.051-08:00,1676425878,34.06890359,-118.4428912,127.9516,0.19,1.02,62.578125,94.29358919,6,20.23286467,-9999,17047.38019,0.227035522,0.00302124,-0.981628418,17047.37018,0.173086387,0.232924354,0.004921461,-0.020017214,-0.006155159,0.035722505,0.000257999,0.010948648,0.001609266,XArbitraryZVertical,-0.007608749,0.115975106,0.086134288,0.989481083,0.230821088,-0.004921441,-0.972983778,0,0,0,-1,-1,17040.59914,unknown,2,2023-02-14T17:51:12.269-08:00,2023-02-14T17:43:35.488-08:00,142,1.222332,0,0,100.5051,0,0,2023-02-14T17:51:17.394-08:00,698118677.5,0,1.010002,99.27431,1,0.73,0
2023-02-14T17:51:19.086-08:00,1676425878,34.06890359,-118.4428912,127.9516,0.19,1.02,62.578125,94.29358919,6,20.23286467,-9999,17047.41522,0.232559204,-0.014572144,-0.965301514,17047.4002,0.173890052,0.233158023,0.005515157,0.002044998,0.006370152,0.025390405,-0.003264531,0.00519468,0.000926673,XArbitraryZVertical,-0.007371737,0.116113162,0.08656533,0.989428978,0.231047735,-0.005515129,-0.972926795,0,0,0,-1,-1,17040.59914,unknown,2,2023-02-14T17:51:12.269-08:00,2023-02-14T17:43:35.488-08:00,142,1.222332,0,0,100.5051,0,0,2023-02-14T17:51:17.394-08:00,698118677.5,0,1.010002,99.27431,1,0.73,0
2023-02-14T17:51:19.121-08:00,1676425878,34.06890359,-118.4428912,127.9516,0.19,1.02,62.578125,94.29358919,6,20.23286467,-9999,17047.45025,0.235336304,0.002182007,-0.983200073,17047.43023,0.1748093,0.233396986,0.005124229,-0.044120844,0.001742378,0.019423727,0.003765687,-0.003939528,0.008563876,XArbitraryZVertical,-0.0076289,0.116211088,0.086996572,0.989377706,0.231280699,-0.005124206,-0.972873569,0,0,0,-1,-1,17040.59914,unknown,2,2023-02-14T17:51:12.269-08:00,2023-02-14T17:43:35.488-08:00,142,1.222332,0,0,100.5051,0,0,2023-02-14T17:51:17.394-08:00,698118677.5,0,1.010002,99.27431,1,0.73,0
2023-02-14T17:51:19.160-08:00,1676425878,34.06890359,-118.4428912,127.9516,0.19,1.02,62.578125,94.29358919,6,20.23286467,-9999,17047.48528,0.229537964,-0.012390137,-0.970672607,17047.46026,0.175229663,0.233331313,0.00421195,0.000222011,-0.004161983,-0.006951221,0.00628525,0.007919811,-0.014854312,XArbitraryZVertical,-0.00810177,0.116137468,0.087151965,0.989368989,0.231217787,-0.004211938,-0.97289288,0,0,0,-1,-1,17040.59914,unknown,2,2023-02-14T17:51:12.269-08:00,2023-02-14T17:43:35.488-08:00,142,1.222332,0,0,100.5051,0,0,2023-02-14T17:51:17.394-08:00,698118677.5,0,1.010002,99.27431,1,0.73,0
2023-02-14T17:51:19.192-08:00,1676425878,34.06890359,-118.4428912,127.9516,0.19,1.02,62.578125,94.29358919,6,20.23286467,-9999,17047.52031,0.228546143,-0.014266968,-0.970443726,17047.52031,0.175427987,0.232739027,0.003553759,-0.043001678,-0.017437374,0.013994707,-0.004033834,-0.010026584,0.004434764,XArbitraryZVertical,-0.008413068,0.115815113,0.087214469,0.989398605,0.23064211,-0.003553751,-0.973032176,0,0,0,-1,-1,17040.59914,unknown,2,2023-02-14T17:51:12.269-08:00,2023-02-14T17:43:35.488-08:00,142,1.222332,0,0,100.5051,0,0,2023-02-14T17:51:17.394-08:00,698118677.5,0,1.010002,99.27431,1,0.73,0
2023-02-14T17:51:19.226-08:00,1676425878,34.06890359,-118.4428912,127.9516,0.19,1.02,62.578125,94.29358919,6,20.23286467,-9999,17047.55534,0.232574463,-0.019348145,-0.967224121,17047.55034,0.176103976,0.232259821,0.002660904,-0.021297343,-0.025638979,0.025480188,0.0018792,-0.009942872,0.004395306,XArbitraryZVertical,-0.008872944,0.115536288,0.08749943,0.989402055,0.230176434,-0.0026609,-0.973145247,0,0,0,-1,-1,17040.59914,unknown,2,2023-02-14T17:51:12.269-08:00,2023-02-14T17:43:35.488-08:00,142,1.222332,0,0,100.5051,0,0,2023-02-14T17:51:17.394-08:00,698118677.5,0,1.010002,99.27431,1,0.73,0
2023-02-14T17:51:19.261-08:00,1676425878,34.06890359,-118.4428912,127.9516,0.19,1.02,62.578125,94.29358919,6,20.23286467,-9999,17047.59038,0.239700317,-0.011383057,-0.969070435,17047.58037,0.177554911,0.230983806,0.002217928,-0.038549993,-0.060115531,0.05782298,0.013039112,-0.008753158,0.005589545,XArbitraryZVertical,-0.009119622,0.114879111,0.08819748,0.989414398,0.22893475,-0.002217926,-0.973439217,0,0,0,-1,-1,17040.59914,unknown,2,2023-02-14T17:51:12.269-08:00,2023-02-14T17:43:35.488-08:00,142,1.222332,0,0,100.5051,0,0,2023-02-14T17:51:17.394-08:00,698118677.5,0,1.010002,99.27431,1,0.73,0
2023-02-14T17:51:19.297-08:00,1676425878,34.06890359,-118.4428912,127.9516,0.19,1.02,62.578125,94.29358919,6,20.23286467,-9999,17047.62541,0.235794067,-0.01373291,-0.961593628,17047.61039,0.179798,0.228945148,0.001428727,-0.059249144,-0.069005966,0.0722472,0.005853236,-0.003011595,0.007413685,XArbitraryZVertical,-0.009547861,0.113825171,0.089271627,0.989435742,0.226950094,-0.001428726,-0.973905325,0,0,0,-1,-1,17040.59914,unknown,2,2023-02-14T17:51:12.269-08:00,2023-02-14T17:43:35.488-08:00,142,1.222332,0,0,100.5051,0,0,2023-02-14T17:51:17.394-08:00,698118677.5,0,1.010002,99.27431,1,0.73,0
2023-02-14T17:51:19.332-08:00,1676425878,34.06890359,-118.4428912,127.9516,0.19,1.02,62.578125,94.29358919,6,20.23286467,-9999,17047.66044,0.232299805,-0.011917114,-0.958786011,17047.64042,0.182539371,0.226980448,-0.000133115,-0.096878178,-0.071040884,0.080582619,0.013763592,-0.01082954,0.012512565,XArbitraryZVertical,-0.010387504,0.112769369,0.090549181,0.9894322,0.225036457,0.000133115,-0.974350333,0,0,0,-1,-1,17040.59914,unknown,2,2023-02-14T17:51:12.269-08:00,2023-02-14T17:43:35.488-08:00,142,1.222332,0,0,100.5051,0,0,2023-02-14T17:51:17.394-08:00,698118677.5,0,1.010002,99.27431,1,0.73,0
2023-02-14T17:51:19.367-08:00,1676425878,34.06890359,-118.4428912,127.9516,0.19,1.02,62.578125,94.29358919,6,20.23286467,-9999,17047.69547,0.209381104,0.005599976,-0.975540161,17047.67045,0.185828678,0.225219066,-0.002298072,-0.110386312,-0.071134955,0.091513865,0.005638823,-0.012658803,0.014247656,XArbitraryZVertical,-0.011562751,0.11178097,0.092064433,0.989391466,0.223319307,0.00229807,-0.974742651,0,0,0,-1,-1,17040.59914,unknown,2,2023-02-14T17:51:12.269-08:00,2023-02-14T17:43:35.488-08:00,142,1.222332,0,0,100.5051,0,0,2023-02-14T17:51:17.394-08:00,698118677.5,0,1.010002,99.27431,1,0.73,0
2023-02-14T17:51:19.402-08:00,1676425878,34.06890359,-118.4428912,127.9516,0.19,1.02,62.578125,94.29358919,6,20.23286467,-9999,17047.7305,0.217834473,0.007369995,-0.96987915,17047.70047,0.188722064,0.223995308,-0.003811986,-0.043846328,-0.036498219,0.071943253,-0.012744173,0.001787985,-0.000529468,XArbitraryZVertical,-0.012416096,0.111087797,0.093418508,0.989332254,0.222125262,0.003811976,-0.975010693,0,0,0,-1,-1,17040.59914,unknown,2,2023-02-14T17:51:12.269-08:00,2023-02-14T17:43:35.488-08:00,142,1.222332,0,0,100.5051,0,0,2023-02-14T17:51:17.394-08:00,698118677.5,0,1.010002,99.27431,1,0.73,0
2023-02-14T17:51:19.437-08:00,1676425878,34.06890359,-118.4428912,127.9516,0.19,1.02,62.578125,94.29358919,6,20.23286467,-9999,17047.76553,0.224731445,-0.0052948,-0.969421387,17047.76053,0.192256298,0.223158623,-0.003741984,-0.051697593,-0.0161785,0.036759406,0.005802333,-0.003970871,0.008033395,XArbitraryZVertical,-0.012537947,0.110655211,0.095175783,0.989211676,0.221309468,0.003741975,-0.975196421,0,0,0,-1,-1,17040.59914,unknown,2,2023-02-14T17:51:12.269-08:00,2023-02-14T17:43:35.488-08:00,142,1.222332,0,0,100.5051,0,0,2023-02-14T17:51:17.394-08:00,698118677.5,0,1.010002,99.27431,1,0.73,0
2023-02-14T17:51:19.472-08:00,1676425879,34.06890711,-118.44287,127.8551,0,1.02,89.296875,99.78756113,6,19.48055627,-9999,17047.80056,0.230117798,0.002975464,-0.979980469,17047.79055,0.193714646,0.222441056,-0.005360999,-0.061148405,-0.02560975,0.042322319,0.006686881,-0.012364773,-0.00263375,XArbitraryZVertical,-0.013384938,0.110213143,0.095811983,0.989188497,0.220608026,0.005360973,-0.975347817,0,0,0,-1,-1,17040.59914,unknown,2,2023-02-14T17:51:12.269-08:00,2023-02-14T17:43:35.488-08:00,142,1.222332,0,0,100.5051,0,0,2023-02-14T17:51:17.394-08:00,698118677.5,0,1.010002,99.27431,1,0.73,0
2023-02-14T17:51:19.507-08:00,1676425879,34.06890711,-118.44287,127.8551,0,1.02,89.296875,99.78756113,6,19.48055627,-9999,17047.83559,0.21774292,-0.01675415,-0.960998535,17047.82058,0.195573821,0.221360822,-0.006417445,-0.047300711,-0.045620412,0.069936603,0.005605772,-0.01191058,0.004967928,XArbitraryZVertical,-0.013957599,0.109614979,0.096680531,0.98916256,0.219552919,0.006417401,-0.9755795,0,0,0,-1,-1,17040.59914,unknown,2,2023-02-14T17:51:12.269-08:00,2023-02-14T17:43:35.488-08:00,142,1.222332,0,0,100.5051,0,0,2023-02-14T17:51:17.394-08:00,698118677.5,0,1.010002,99.27431,1,0.73,0
2023-02-14T17:51:19.541-08:00,1676425879,34.06890711,-118.44287,127.8551,0,1.02,89.296875,99.78756113,6,19.48055627,-9999,17047.87063,0.227157593,-0.003662109,-0.970733643,17047.85061,0.198478453,0.220145268,-0.007794475,-0.082074568,-0.051194604,0.090043433,0.005603746,-0.018063577,0.011022866,XArbitraryZVertical,-0.014738094,0.108925397,0.098050064,0.989092618,0.21836476,0.007794396,-0.975836098,0,0,0,-1,-1,17040.59914,unknown,2,2023-02-14T17:51:12.269-08:00,2023-02-14T17:43:35.488-08:00,142,1.222332,0,0,100.5051,0,0,2023-02-14T17:51:17.394-08:00,698118677.5,0,1.010002,99.27431,1,0.73,0
2023-02-14T17:51:19.577-08:00,1676425879,34.06890711,-118.44287,127.8551,0,1.02,89.296875,99.78756113,6,19.48055627,-9999,17047.90566,0.228225708,0.000671387,-0.961578369,17047.88064,0.201527779,0.21889796,-0.009325943,-0.092601031,-0.052254744,0.090128221,0.00969258,-0.017916523,0.006627738,XArbitraryZVertical,-0.015599306,0.108209095,0.099483711,0.989014906,0.217144564,0.009325808,-0.976094902,0,0,0,-1,-1,17040.59914,unknown,2,2023-02-14T17:51:12.269-08:00,2023-02-14T17:43:35.488-08:00,142,1.222332,0,0,100.5051,0,0,2023-02-14T17:51:17.394-08:00,698118677.5,0,1.010002,99.27431,1,0.73,0
2023-02-14T17:51:19.612-08:00,1676425879,34.06890711,-118.44287,127.8551,0,1.02,89.296875,99.78756113,6,19.48055627,-9999,17047.94069,0.207702637,0.004425049,-0.965789795,17047.91066,0.205153508,0.217290935,-0.011140036,-0.086817332,-0.066733822,0.109980889,0.012654021,-0.010468435,0.014846087,XArbitraryZVertical,-0.016610965,0.107293241,0.101190856,0.988924937,0.215571672,0.011139805,-0.976424456,0,0,0,-1,-1,17040.59914,unknown,2,2023-02-14T17:51:12.269-08:00,2023-02-14T17:43:35.488-08:00,142,1.222332,0,0,100.5051,0,0,2023-02-14T17:51:17.394-08:00,698118677.5,0,1.010002,99.27431,1,0.73,0
2023-02-14T17:51:19.647-08:00,1676425879,34.06890711,-118.44287,127.8551,0,1.02,89.296875,99.78756113,6,19.48055627,-9999,17047.97572,0.211456299,0.004364014,-0.963272095,17047.97072,0.212442862,0.215476398,-0.013501491,-0.0720369,-0.006710095,0.086498298,-0.003252596,-0.011837889,0.012979507,XArbitraryZVertical,-0.018073979,0.106209829,0.104682857,0.988652722,0.213793352,0.013501081,-0.9767856,0,0,0,-1,-1,17040.59914,unknown,2,2023-02-14T17:51:12.269-08:00,2023-02-14T17:43:35.488-08:00,142,1.222332,0,0,100.5051,0,0,2023-02-14T17:51:17.394-08:00,698118677.5,0,1.010002,99.27431,1,0.73,0
2023-02-14T17:51:19.682-08:00,1676425879,34.06890711,-118.44287,127.8551,0,1.02,89.296875,99.78756113,6,19.48055627,-9999,17048.01075,0.211517334,0.020019531,-0.969497681,17048.00074,0.215186553,0.215801824,-0.014707624,-0.070874803,-0.000893086,0.076042399,0.000369966,-0.006070634,0.009566784,XArbitraryZVertical,-0.018832949,0.106280941,0.105971051,0.988493644,0.214107558,0.014707094,-0.976699352,0,0,0,-1,-1,17040.59914,unknown,2,2023-02-14T17:51:12.269-08:00,2023-02-14T17:43:35.488-08:00,142,1.222332,0,0,100.5051,0,0,2023-02-14T17:51:17.394-08:00,698118677.5,0,1.010002,99.27431,1,0.73,0
2023-02-14T17:51:19.717-08:00,1676425879,34.06890711,-118.44287,127.8551,0,1.02,89.296875,99.78756113,6,19.48055627,-9999,17048.04578,0.201080322,0.028930664,-0.975799561,17048.03077,0.217225327,0.216065294,-0.015424686,-0.016695186,0.018590599,0.037358385,-0.009269208,0.009707133,0.004113495,XArbitraryZVertical,-0.01930967,0.106352962,0.106937434,0.98837265,0.214362577,0.015424074,-0.976632357,0,0,0,-1,-1,17040.59914,unknown,2,2023-02-14T17:51:12.269-08:00,2023-02-14T17:43:35.488-08:00,142,1.222332,0,0,100.5051,0,0,2023-02-14T17:51:17.394-08:00,698118677.5,0,1.010002,99.27431,1,0.73,0
2023-02-14T17:51:19.752-08:00,1676425879,34.06890711,-118.44287,127.8551,0,1.02,89.296875,99.78756113,6,19.48055627,-9999,17048.08081,0.210830688,-0.004241943,-0.954711914,17048.0608,0.217643873,0.217001558,-0.014848753,0.006740417,0.048161276,0.001981087,-0.013893247,0.003904829,0.004271805,XArbitraryZVertical,-0.019097537,0.106842912,0.107166445,0.988299106,0.215278745,0.014848207,-0.976439774,0,0,0,-1,-1,17040.59914,unknown,2,2023-02-14T17:51:12.269-08:00,2023-02-14T17:43:35.488-08:00,142,1.222332,0,0,100.5051,0,0,2023-02-14T17:51:17.394-08:00,698118677.5,0,1.010002,99.27431,1,0.73,0
2023-02-14T17:51:19.787-08:00,1676425879,34.06890711,-118.44287,127.8551,0,1.02,89.296875,99.78756113,6,19.48055627,-9999,17048.11585,0.218215942,0.003952026,-0.961166382,17048.09082,0.217908894,0.218532101,-0.015636379,-0.072431795,0.048567012,0.009947734,-0.003299922,-0.023326186,0.024452507,XArbitraryZVertical,-0.019582897,0.107553765,0.107239734,0.988204538,0.216770366,0.015635742,-0.976097405,0,0,0,-1,-1,17040.59914,unknown,2,2023-02-14T17:51:12.269-08:00,2023-02-14T17:43:35.488-08:00,142,1.222332,0,0,100.5051,0,0,2023-02-14T17:51:17.394-08:00,698118677.5,0,1.010002,99.27431,1,0.73,0
2023-02-14T17:51:19.822-08:00,1676425879,34.06890711,-118.44287,127.8551,0,1.02,89.296875,99.78756113,6,19.48055627,-9999,17048.15088,0.215011597,0.001480103,-0.967529297,17048.12085,0.219006161,0.21956456,-0.018053978,-0.071666241,0.032634251,0.02329969,0.000446752,-0.014100987,0.014666975,XArbitraryZVertical,-0.020891701,0.107920688,0.10763898,0.988094325,0.217769161,0.018052997,-0.975833297,0,0,0,-1,-1,17040.59914,unknown,2,2023-02-14T17:51:12.269-08:00,2023-02-14T17:43:35.488-08:00,142,1.222332,0,0,100.5051,0,0,2023-02-14T17:51:17.394-08:00,698118677.5,0,1.010002,99.27431,1,0.73,0
2023-02-14T17:51:19.857-08:00,1676425879,34.06890711,-118.44287,127.8551,0,1.02,89.296875,99.78756113,6,19.48055627,-9999,17048.18591,0.225952148,-0.006958008,-0.953353882,17048.1809,0.222216101,0.221147811,-0.022063922,-0.155880988,0.015659193,0.053740453,0.007891864,-0.03553566,0.020986855,XArbitraryZVertical,-0.023131434,0.108445895,0.108985901,0.987839302,0.219296232,0.022062132,-0.975408852,0,0,0,-1,-1,17040.59914,unknown,2,2023-02-14T17:51:12.269-08:00,2023-02-14T17:43:35.488-08:00,142,1.222332,0,0,100.5051,0,0,2023-02-14T17:51:17.394-08:00,698118677.5,0,1.010002,99.27431,1,0.73,0
2023-02-14T17:51:19.892-08:00,1676425879,34.06890711,-118.44287,127.8551,0,1.02,89.296875,99.78756113,6,19.48055627,-9999,17048.22094,0.197021484,0.015075684,-0.977996826,17048.21093,0.224699118,0.221901614,-0.025829015,-0.121194378,0.03513442,0.045937624,-0.016123667,-0.023567859,0.010433674,XArbitraryZVertical,-0.025166353,0.10857713,0.109993828,0.987663386,0.220011592,0.025826143,-0.975155294,0,0,0,-1,-1,17040.59914,unknown,2,2023-02-14T17:51:12.269-08:00,2023-02-14T17:43:35.488-08:00,142,1.222332,0,0,100.5051,0,0,2023-02-14T17:51:17.394-08:00,698118677.5,0,1.010002,99.27431,1,0.73,0
2023-02-14T17:51:19.927-08:00,1676425879,34.06890711,-118.44287,127.8551,0,1.02,89.296875,99.78756113,6,19.48055627,-9999,17048.25597,0.210601807,0.004989624,-0.97227478,17048.24096,0.226296427,0.223400089,-0.027487647,-0.053226832,0.062002856,0.032075439,-0.020138338,-0.013064647,-0.004191935,XArbitraryZVertical,-0.026154722,0.109202625,0.110670559,0.987493141,0.221462801,0.027484186,-0.974781454,0,0,0,-1,-1,17040.59914,unknown,2,2023-02-14T17:51:12.269-08:00,2023-02-14T17:43:35.488-08:00,142,1.222332,0,0,100.5051,0,0,2023-02-14T17:51:17.394-08:00,698118677.5,0,1.010002,99.27431,1,0.73,0
2023-02-14T17:51:19.962-08:00,1676425879,34.06890711,-118.44287,127.8551,0,1.02,89.296875,99.78756113,6,19.48055627,-9999,17048.291,0.216461182,0.005249023,-0.96661377,17048.27098,0.227663388,0.22561044,-0.028433693,-0.090782464,0.063328043,0.033194765,-0.009209707,-0.029635321,0.006307244,XArbitraryZVertical,-0.026819237,0.110221802,0.111262765,0.987295537,0.223610952,0.028429862,-0.974263787,0,0,0,-1,-1,17040.59914,unknown,2,2023-02-14T17:51:12.269-08:00,2023-02-14T17:43:35.488-08:00,142,1.222332,0,0,100.5051,0,0,2023-02-14T17:51:17.394-08:00,698118677.5,0,1.010002,99.27431,1,0.73,0
2023-02-14T17:51:19.997-08:00,1676425879,34.06890711,-118.44287,127.8551,0,1.02,89.296875,99.78756113,6,19.48055627,-9999,17048.32603,0.187973022,0.004592896,-0.967224121,17048.30101,0.229237201,0.226873033,-0.030391202,-0.068869226,0.04534132,0.033597037,-0.006825611,-0.017920109,0.007203996,XArbitraryZVertical,-0.027942478,0.110711033,0.111910942,0.987136421,0.22482793,0.030386524,-0.973924577,0,0,0,-1,-1,17040.59914,unknown,2,2023-02-14T17:51:12.269-08:00,2023-02-14T17:43:35.488-08:00,142,1.222332,0,0,100.5051,0,0,2023-02-14T17:51:17.394-08:00,698118677.5,0,1.010002,99.27431,1,0.73,0
2023-02-14T17:51:20.033-08:00,1676425879,34.06890711,-118.44287,127.8551,0,1.02,89.296875,99.78756113,6,19.48055627,-9999,17048.36106,0.173828125,3.05E-05,-0.951156616,17048.33104,0.230659286,0.227699611,-0.031356375,-0.039795768,0.055505272,0.038094852,-0.037653133,-0.026758362,0.006485283,XArbitraryZVertical,-0.028543857,0.111043065,0.112545921,0.987009656,0.225626141,0.031351238,-0.973709345,0,0,0,-1,-1,17040.59914,unknown,2,2023-02-14T17:51:12.269-08:00,2023-02-14T17:43:35.488-08:00,142,1.222332,0,0,100.5051,0,0,2023-02-14T17:51:17.394-08:00,698118680,0,0.9500008,99.2728,1,0.73,0
2023-02-14T17:51:20.067-08:00,1676425880,34.06890564,-118.4428548,127.928,0,0.84,63.984375,99.91689759,6,18.38884244,-9999,17048.3961,0.167526245,0.013046265,-0.971908569,17048.39109,0.233370495,0.232601539,-0.033101066,-0.104245916,0.114699952,0.048453577,-0.05782187,-0.030974068,0.017168939,XArbitraryZVertical,-0.029833658,0.113320202,0.11371099,0.986579073,0.230383515,0.033095021,-0.972536981,0,0,0,-1,-1,17040.59914,unknown,2,2023-02-14T17:51:12.269-08:00,2023-02-14T17:43:35.488-08:00,142,1.222332,0,0,100.5051,0,0,2023-02-14T17:51:17.394-08:00,698118680,0,0.9500008,99.2728,1,0.73,0
2023-02-14T17:51:20.102-08:00,1676425880,34.06890564,-118.4428548,127.928,0,0.84,63.984375,99.91689759,6,18.38884244,-9999,17048.43113,0.114883423,0.072189331,-1.019302368,17048.42112,0.235163232,0.235952807,-0.034972885,-0.038417898,0.152780086,0.028702982,-0.101012409,0.022453051,-0.034772217,XArbitraryZVertical,-0.031049836,0.114835358,0.114433727,0.986282701,0.233626544,0.034965757,-0.971697509,0,0,0,-1,-1,17040.59914,unknown,2,2023-02-14T17:51:12.269-08:00,2023-02-14T17:43:35.488-08:00,142,1.222332,0,0,100.5051,0,0,2023-02-14T17:51:17.394-08:00,698118680,0,0.9500008,99.2728,1,0.73,0
2023-02-14T17:51:20.137-08:00,1676425880,34.06890564,-118.4428548,127.928,0,0.84,63.984375,99.91689759,6,18.38884244,-9999,17048.46616,0.128646851,0.041915894,-1.008102417,17048.45115,0.235036133,0.240374525,-0.034646506,0.004230921,0.171737209,-0.043657739,-0.118172556,0.027707823,-0.046317041,XArbitraryZVertical,-0.03113449,0.117036927,0.114321898,0.986034176,0.237923533,0.034639575,-0.970665991,0,0,0,-1,-1,17040.59914,unknown,2,2023-02-14T17:51:12.269-08:00,2023-02-14T17:43:35.488-08:00,142,1.222332,0,0,100.5051,0,0,2023-02-14T17:51:17.394-08:00,698118680,0,0.9500008,99.2728,1,0.73,0
2023-02-14T17:51:20.173-08:00,1676425880,34.06890564,-118.4428548,127.928,0,0.84,63.984375,99.91689759,6,18.38884244,-9999,17048.50119,0.144424438,0.044876099,-1.027114868,17048.48117,0.232819183,0.243930531,-0.035770079,-0.05959088,0.12876378,-0.119289719,-0.111618683,0.001301132,-0.037350416,XArbitraryZVertical,-0.031759619,0.118758619,0.113104504,0.985948854,0.241364166,0.035762452,-0.969775438,0,0,0,-1,-1,17040.59914,unknown,2,2023-02-14T17:51:12.269-08:00,2023-02-14T17:43:35.488-08:00,142,1.222332,0,0,100.5051,0,0,2023-02-14T17:51:17.394-08:00,698118680,0,0.9500008,99.2728,1,0.73,0
2023-02-14T17:51:20.208-08:00,1676425880,34.06890564,-118.4428548,127.928,0,0.84,63.984375,99.91689759,6,18.38884244,-9999,17048.53622,0.146270752,0.025848389,-1.021697998,17048.5112,0.229103607,0.245114508,-0.039162677,-0.092876188,0.057863437,-0.153761372,-0.098072186,0.00164932,-0.060114264,XArbitraryZVertical,-0.033276608,0.119204931,0.111044355,0.986079115,0.242481351,0.039152667,-0.969365716,0,0,0,-1,-1,17040.59914,unknown,2,2023-02-14T17:51:12.269-08:00,2023-02-14T17:43:35.488-08:00,142,1.222332,0,0,100.5051,0,0,2023-02-14T17:51:17.394-08:00,698118680,0,0.9500008,99.2728,1,0.73,0
2023-02-14T17:51:20.243-08:00,1676425880,34.06890564,-118.4428548,127.928,0,0.84,63.984375,99.91689759,6,18.38884244,-9999,17048.57125,0.170059204,-0.00567627,-0.981964111,17048.54123,0.225157764,0.243591839,-0.043987719,-0.12240915,-0.017048821,-0.164034814,-0.094685927,-0.018125162,-0.052158833,XArbitraryZVertical,-0.035336584,0.118244405,0.108827028,0.986370223,0.240956664,0.043973535,-0.969539165,0,0,0,-1,-1,17040.59914,unknown,2,2023-02-14T17:51:12.269-08:00,2023-02-14T17:43:35.488-08:00,142,1.222332,0,0,100.5051,0,0,2023-02-14T17:51:17.394-08:00,698118680,0,0.9500008,99.2728,1,0.73,0
2023-02-14T17:51:20.277-08:00,1676425880,34.06890564,-118.4428548,127.928,0,0.84,63.984375,99.91689759,6,18.38884244,-9999,17048.60628,0.151229858,-0.016296387,-0.96673584,17048.60128,0.216343255,0.236899201,-0.054040963,-0.1306649,-0.093272947,-0.175039023,-0.077242479,-0.069197178,0.006600976,XArbitraryZVertical,-0.039424455,0.114542868,0.10399115,0.987173475,0.234346956,0.054014664,-0.970651269,0,0,0,-1,-1,17040.59914,unknown,2,2023-02-14T17:51:12.269-08:00,2023-02-14T17:43:35.488-08:00,142,1.222332,0,0,100.5051,0,0,2023-02-14T17:51:17.394-08:00,698118680,0,0.9500008,99.2728,1,0.73,0
2023-02-14T17:51:20.312-08:00,1676425880,34.06890564,-118.4428548,127.928,0,0.84,63.984375,99.91689759,6,18.38884244,-9999,17048.64132,0.152435303,-0.002639771,-0.964614868,17048.63131,0.212410015,0.23225649,-0.058541116,-0.112005405,-0.095398352,-0.155281201,-0.082059383,-0.056737684,0.005387485,XArbitraryZVertical,-0.041182788,0.112083705,0.101874468,0.987604592,0.229779705,0.058507685,-0.971482456,0,0,0,-1,-1,17040.59914,unknown,2,2023-02-14T17:51:12.269-08:00,2023-02-14T17:43:35.488-08:00,142,1.222332,0,0,100.5051,0,0,2023-02-14T17:51:17.394-08:00,698118680,0,0.9500008,99.2728,1,0.73,0
2023-02-14T17:51:20.347-08:00,1676425880,34.06890564,-118.4428548,127.928,0,0.84,63.984375,99.91689759,6,18.38884244,-9999,17048.67635,0.147125244,-0.002197266,-0.955047607,17048.66133,0.208677412,0.228448738,-0.061649024,-0.102770843,-0.097564168,-0.143350974,-0.065758318,-0.067377821,0.012695909,XArbitraryZVertical,-0.042317198,0.110113525,0.099928051,0.987977046,0.226036623,0.06160998,-0.972168505,0,0,0,-1,-1,17040.59914,unknown,2,2023-02-14T17:51:12.269-08:00,2023-02-14T17:43:35.488-08:00,142,1.222332,0,0,100.5051,0,0,2023-02-14T17:51:17.394-08:00,698118680,0,0.9500008,99.2728,1,0.73,0
2023-02-14T17:51:20.383-08:00,1676425880,34.06890564,-118.4428548,127.928,0,0.84,63.984375,99.91689759,6,18.38884244,-9999,17048.71138,0.137908936,0.012619019,-0.967102051,17048.69136,0.205366291,0.224527875,-0.064468281,-0.119923569,-0.084643036,-0.125350401,-0.084778219,-0.066804022,0.012073934,XArbitraryZVertical,-0.043334238,0.108097576,0.098213138,0.988327495,0.2221836,0.064423636,-0.972874105,0,0,0,-1,-1,17040.59914,unknown,2,2023-02-14T17:51:12.269-08:00,2023-02-14T17:43:35.488-08:00,142,1.222332,0,0,100.5051,0,0,2023-02-14T17:51:17.394-08:00,698118680,0,0.9500008,99.2728,1,0.73,0
2023-02-14T17:51:20.418-08:00,1676425880,34.06890564,-118.4428548,127.928,0,0.84,63.984375,99.91689759,6,18.38884244,-9999,17048.74641,0.129226685,0.027282715,-0.962463379,17048.72139,0.202654217,0.221192041,-0.067862989,-0.102502555,-0.078780495,-0.11283002,-0.079864964,-0.054062769,0.003176033,XArbitraryZVertical,-0.04470277,0.106330714,0.096752826,0.988602115,0.218887776,0.067810915,-0.973390877,0,0,0,-1,-1,17040.59914,unknown,2,2023-02-14T17:51:12.269-08:00,2023-02-14T17:43:35.488-08:00,142,1.222332,0,0,100.5051,0,0,2023-02-14T17:51:17.394-08:00,698118680,0,0.9500008,99.2728,1,0.73,0
2023-02-14T17:51:20.453-08:00,1676425880,34.06890564,-118.4428548,127.928,0,0.84,63.984375,99.91689759,6,18.38884244,-9999,17048.78144,0.126495361,0.025238037,-0.965957642,17048.75141,0.199370249,0.218411666,-0.070071235,-0.028709931,-0.049712557,-0.142211378,-0.086920887,-0.042731211,0.011383772,XArbitraryZVertical,-0.045486854,0.104916006,0.095067794,0.988881043,0.216147572,0.070013911,-0.973847151,0,0,0,-1,-1,17040.59914,unknown,2,2023-02-14T17:51:12.269-08:00,2023-02-14T17:43:35.488-08:00,142,1.222332,0,0,100.5051,0,0,2023-02-14T17:51:17.394-08:00,698118680,0,0.9500008,99.2728,1,0.73,0
2023-02-14T17:51:20.488-08:00,1676425880,34.06890564,-118.4428548,127.928,0,0.84,63.984375,99.91689759,6,18.38884244,-9999,17048.81647,0.13420105,0.076049805,-1.005752563,17048.81147,0.191743508,0.215696291,-0.071452804,0.029626984,0.000957943,-0.123252399,-0.082912058,-0.006786324,-0.01376307,XArbitraryZVertical,-0.045645389,0.103677219,0.091280983,0.989361011,0.213481516,0.071392022,-0.974335074,0,0,0,-1,-1,17040.59914,unknown,2,2023-02-14T17:51:12.269-08:00,2023-02-14T17:43:35.488-08:00,142,1.222332,0,0,100.5051,0,0,2023-02-14T17:51:17.394-08:00,698118680,0,0.9500008,99.2728,1,0.73,0
2023-02-14T17:51:20.523-08:00,1676425880,34.06890564,-118.4428548,127.928,0,0.84,63.984375,99.91689759,6,18.38884244,-9999,17048.8515,0.160675049,0.050582886,-1.024398804,17048.8415,0.187165642,0.214588263,-0.06883754,0.163653389,0.023557726,-0.13010481,-0.065269813,0.023410395,-0.069103599,XArbitraryZVertical,-0.044065463,0.103359475,0.089184897,0.989657078,0.212440819,0.068783186,-0.974750102,0,0,0,-1,-1,17040.59914,unknown,2,2023-02-14T17:51:12.269-08:00,2023-02-14T17:43:35.488-08:00,142,1.222332,0,0,100.5051,0,0,2023-02-14T17:51:17.394-08:00,698118680,0,0.9500008,99.2728,1,0.73,0
2023-02-14T17:51:20.558-08:00,1676425880,34.06890564,-118.4428548,127.928,0,0.84,63.984375,99.91689759,6,18.38884244,-9999,17048.88654,0.176620483,0.031478882,-1.009231567,17048.87152,0.182906283,0.213256509,-0.066337664,-0.006848735,-0.020338491,-0.117781371,-0.041714147,-0.062260725,-0.015617013,XArbitraryZVertical,-0.042550726,0.102911872,0.087242457,0.989943012,0.211178243,0.066289023,-0.975197136,0,0,0,-1,-1,17040.59914,unknown,2,2023-02-14T17:51:12.269-08:00,2023-02-14T17:43:35.488-08:00,142,1.222332,0,0,100.5051,0,0,2023-02-14T17:51:17.394-08:00,698118680,0,0.9500008,99.2728,1,0.73,0
2023-02-14T17:51:20.592-08:00,1676425880,34.06890564,-118.4428548,127.928,0,0.84,63.984375,99.91689759,6,18.38884244,-9999,17048.92157,0.16607666,0.025436401,-1.025924683,17048.90155,0.178740824,0.210819912,-0.067953009,0.033340175,-0.015067162,-0.174796388,-0.02339974,-0.018874258,-0.040815592,XArbitraryZVertical,-0.043031764,0.101719436,0.085144997,0.990228123,0.208778769,0.067900725,-0.975602865,0,0,0,-1,-1,17040.59914,unknown,2,2023-02-14T17:51:12.269-08:00,2023-02-14T17:43:35.488-08:00,142,1.222332,0,0,100.5051,0,0,2023-02-14T17:51:17.394-08:00,698118680,0,0.9500008,99.2728,1,0.73,0
2023-02-14T17:51:20.627-08:00,1676425880,34.06890564,-118.4428548,127.928,0,0.84,63.984375,99.91689759,6,18.38884244,-9999,17048.9566,0.169006348,0.011856079,-1.01083374,17048.93158,0.173063434,0.209245426,-0.067663507,0.073260479,0.035840694,-0.153934345,-0.043550238,-0.045196757,-0.048952758,XArbitraryZVertical,-0.042534719,0.10107436,0.082382801,0.990549211,0.207246512,0.067611888,-0.975949526,0,0,0,-1,-1,17040.59914,unknown,2,2023-02-14T17:51:12.269-08:00,2023-02-14T17:43:35.488-08:00,142,1.222332,0,0,100.5051,0,0,2023-02-14T17:51:17.394-08:00,698118680,0,0.9500008,99.2728,1,0.73,0
2023-02-14T17:51:20.663-08:00,1676425880,34.06890564,-118.4428548,127.928,0,0.84,63.984375,99.91689759,6,18.38884244,-9999,17048.99163,0.225524902,0.079193115,-1.033935547,17048.9616,0.170215594,0.210479197,-0.067977028,-0.092639484,0.087343037,-0.033375703,-0.039439678,-0.056068636,-0.035161376,XArbitraryZVertical,-0.042595886,0.101732126,0.080929239,0.990599122,0.208446011,0.067924686,-0.975672305,0,0,0,-1,-1,17040.59914,unknown,2,2023-02-14T17:51:12.269-08:00,2023-02-14T17:43:35.488-08:00,142,1.222332,0,0,100.5051,0,0,2023-02-14T17:51:17.394-08:00,698118680,0,0.9500008,99.2728,1,0.73,0
2023-02-14T17:51:20.698-08:00,1676425880,34.06890564,-118.4428548,127.928,0,0.84,63.984375,99.91689759,6,18.38884244,-9999,17049.02666,0.339248657,0.155944824,-1.027496338,17049.02166,0.177732821,0.220123956,-0.074847655,-0.176185668,0.158506364,0.151059955,0.100482777,0.083898343,-0.074637115,XArbitraryZVertical,-0.04678337,0.106029394,0.084057278,0.98969862,0.217739254,0.074777789,-0.973138154,0,0,0,-1,-1,17040.59914,unknown,2,2023-02-14T17:51:12.269-08:00,2023-02-14T17:43:35.488-08:00,142,1.222332,0,0,100.5051,0,0,2023-02-14T17:51:17.394-08:00,698118680,0,0.9500008,99.2728,1,0.73,0
2023-02-14T17:51:20.733-08:00,1676425880,34.06890564,-118.4428548,127.928,0,0.84,63.984375,99.91689759,6,18.38884244,-9999,17049.06169,0.341003418,0.145797729,-0.972732544,17049.05168,0.181981668,0.225093871,-0.078438535,-0.111474901,0.163949326,0.051234949,0.108161613,0.090999156,-0.030619621,XArbitraryZVertical,-0.048997164,0.108218657,0.085835668,0.989201821,0.22251159,0.078358129,-0.971776009,0,0,0,-1,-1,17040.59914,unknown,2,2023-02-14T17:51:12.269-08:00,2023-02-14T17:43:35.488-08:00,142,1.222332,0,0,100.5051,0,0,2023-02-14T17:51:17.394-08:00,698118680,0,0.9500008,99.2728,1,0.73,0
2023-02-14T17:51:20.767-08:00,1676425880,34.06890564,-118.4428548,127.928,0,0.84,63.984375,99.91689759,6,18.38884244,-9999,17049.09672,0.282531738,0.053268433,-0.907241821,17049.08171,0.182533965,0.229241778,-0.081574852,-0.121133976,0.102251947,-0.059511703,0.104220182,0.018643744,0.026920795,XArbitraryZVertical,-0.050755023,0.110107393,0.085822833,0.988905736,0.226483539,0.081484407,-0.970600605,0,0,0,-1,-1,17040.59914,unknown,2,2023-02-14T17:51:12.269-08:00,2023-02-14T17:43:35.488-08:00,142,1.222332,0,0,100.5051,0,0,2023-02-14T17:51:17.394-08:00,698118680,0,0.9500008,99.2728,1,0.73,0
2023-02-14T17:51:20.802-08:00,1676425880,34.06890564,-118.4428548,127.928,0,0.84,63.984375,99.91689759,6,18.38884244,-9999,17049.13176,0.271499634,0.101409912,-0.940338135,17049.11174,0.180300337,0.231673791,-0.085345341,-0.029117022,0.066595271,-0.113491118,0.029911026,-0.01614999,0.051406026,XArbitraryZVertical,-0.05259756,0.111189055,0.084432866,0.988808164,0.22877121,0.085241772,-0.969740987,0,0,0,-1,-1,17040.59914,unknown,2,2023-02-14T17:51:12.269-08:00,2023-02-14T17:43:35.488-08:00,142,1.222332,0,0,100.5051,0,0,2023-02-14T17:51:17.394-08:00,698118680,0,0.9500008,99.2728,1,0.73,0
2023-02-14T17:51:20.838-08:00,1676425880,34.06890564,-118.4428548,127.928,0,0.84,63.984375,99.91689759,6,18.38884244,-9999,17049.16679,0.306671143,0.103866577,-0.959533691,17049.14176,0.178216192,0.233255049,-0.085640239,-0.019349666,0.017169207,-0.002329739,0.052736744,0.007817656,0.023308635,XArbitraryZVertical,-0.052693258,0.112011872,0.083343262,0.988802617,0.230298519,0.085535593,-0.969353497,0,0,0,-1,-1,17040.59914,unknown,2,2023-02-14T17:51:12.269-08:00,2023-02-14T17:43:35.488-08:00,142,1.222332,0,0,100.5051,0,0,2023-02-14T17:51:17.394-08:00,698118680,0,0.9500008,99.2728,1,0.73,0
2023-02-14T17:51:20.873-08:00,1676425880,34.06890564,-118.4428548,127.928,0,0.84,63.984375,99.91689759,6,18.38884244,-9999,17049.20182,0.364181519,0.114303589,-0.932144165,17049.17179,0.181195179,0.234171642,-0.088114362,-0.170049593,0.00593739,0.123560376,0.075534016,0.015866175,0.009399533,XArbitraryZVertical,-0.054120735,0.112269055,0.084643138,0.988585928,0.231137112,0.088000387,-0.968933225,0,0,0,-1,-1,17040.59914,unknown,2,2023-02-14T17:51:12.269-08:00,2023-02-14T17:43:35.488-08:00,142,1.222332,0,0,100.5051,0,0,2023-02-14T17:51:17.394-08:00,698118680,0,0.9500008,99.2728,1,0.73,0
2023-02-14T17:51:20.908-08:00,1676425880,34.06890564,-118.4428548,127.928,0,0.84,63.984375,99.91689759,6,18.38884244,-9999,17049.23685,0.422393799,0.053375244,-0.872573853,17049.23185,0.193071405,0.234860635,-0.097585082,-0.376479924,-0.205983907,0.194906324,0.270963162,-0.034609862,0.098992765,XArbitraryZVertical,-0.059490942,0.111807662,0.08992041,0.987863472,0.231600314,0.097430274,-0.967919767,0,0,0,-1,-1,17040.59914,unknown,2,2023-02-14T17:51:12.269-08:00,2023-02-14T17:43:35.488-08:00,142,1.222332,0,0,100.5051,0,0,2023-02-14T17:51:17.394-08:00,698118680,0,0.9500008,99.2728,1,0.73,0
2023-02-14T17:51:20.942-08:00,1676425880,34.06890564,-118.4428548,127.928,0,0.84,63.984375,99.91689759,6,18.38884244,-9999,17049.27188,0.251251221,0.121749878,-0.898849487,17049.26187,0.202025925,0.230584659,-0.107472739,-0.338631898,-0.074784756,0.221445456,0.017339751,-0.006298587,0.056035519,XArbitraryZVertical,-0.064665711,0.108905204,0.093880006,0.987494045,0.22722812,0.107265964,-0.967916012,0,0,0,-1,-1,17040.59914,unknown,2,2023-02-14T17:51:12.269-08:00,2023-02-14T17:43:35.488-08:00,142,1.222332,0,0,100.5051,0,0,2023-02-14T17:51:17.394-08:00,698118680,0,0.9500008,99.2728,1,0.73,0
2023-02-14T17:51:20.978-08:00,1676425880,34.06890564,-118.4428548,127.928,0,0.84,63.984375,99.91689759,6,18.38884244,-9999,17049.30691,0.225723267,0.034057617,-0.854782104,17049.2919,0.206076302,0.231368016,-0.114871916,-0.18500255,0.021735996,-0.105542146,0.036850378,0.027195714,0.090687513,XArbitraryZVertical,-0.068570964,0.108759722,0.095409145,0.987099975,0.22779803,0.114619449,-0.966938674,0,0,0,-1,-1,17040.59914,unknown,2,2023-02-14T17:51:12.269-08:00,2023-02-14T17:43:35.488-08:00,142,1.222332,0,0,100.5051,0,0,2023-02-14T17:51:17.394-08:00,698118680,0,0.9500008,99.2728,1,0.73,0
2023-02-14T17:51:21.013-08:00,1676425880,34.06890564,-118.4428548,127.928,0,0.84,63.984375,99.91689759,6,18.38884244,-9999,17049.34194,0.154296875,0.060470581,-0.894561768,17049.32193,0.204119733,0.232870674,-0.119291365,-0.128755406,0.222372293,-0.003598135,-0.125371873,-0.124730706,0.144620836,XArbitraryZVertical,-0.070713544,0.109330261,0.094123951,0.98700916,0.229131609,0.119008638,-0.966093004,0,0,0,-1,-1,17040.59914,unknown,2,2023-02-14T17:51:12.269-08:00,2023-02-14T17:43:35.488-08:00,142,1.222332,0,0,100.5051,0,0,2023-02-14T17:51:17.394-08:00,698118680,0,0.9500008,99.2728,1,0.73,0
2023-02-14T17:51:21.048-08:00,1676425880,34.06890564,-118.4428548,127.928,0,0.84,63.984375,99.91689759,6,18.38884244,-9999,17049.37698,0.375640869,0.136260986,-1.011123657,17049.35195,0.206478966,0.241644671,-0.122003264,-0.037078865,0.238494009,0.094632432,-0.06648533,-0.045406915,0.044218659,XArbitraryZVertical,-0.072595253,0.113426953,0.094805846,0.986344797,0.237521082,0.121700823,-0.963728487,0,0,0,-1,-1,17040.59914,unknown,2,2023-02-14T17:51:12.269-08:00,2023-02-14T17:43:35.488-08:00,142,1.222332,0,0,100.5051,0,0,2023-02-14T17:51:17.394-08:00,698118680,0,0.9500008,99.2728,1,0.73,0
2023-02-14T17:51:21.083-08:00,1676425881,34.06890908,-118.4428337,128.4655,0.29,1.01,105.46875,88.73972332,6,17.79423023,-9999,17049.41201,0.211700439,0.096282959,-0.927841187,17049.38198,0.213251687,0.243963373,-0.121243209,-0.029785262,-0.044670727,0.338542372,0.135863543,0.015314586,-0.047859013,XArbitraryZVertical,-0.072718601,0.114366391,0.09810907,0.985904169,0.239777312,0.120946385,-0.963264644,0,0,0,-1,-1,17040.59914,unknown,2,2023-02-14T17:51:12.269-08:00,2023-02-14T17:43:35.488-08:00,142,1.222332,0,0,100.5051,0,0,2023-02-14T17:51:17.394-08:00,698118680,0,0.9500008,99.2728,1,0.73,0
2023-02-14T17:51:21.118-08:00,1676425881,34.06890908,-118.4428337,128.4655,0.29,1.01,105.46875,88.73972332,6,17.79423023,-9999,17049.44704,0.208267212,0.106246948,-0.901092529,17049.44203,0.232682191,0.248197868,-0.121334073,-0.118550502,0.117772579,0.083373412,-0.063935012,-0.046466894,0.063014328,XArbitraryZVertical,-0.074098737,0.115734,0.107520159,0.984659533,0.243851393,0.121036582,-0.962230027,0,0,0,-1,-1,17040.59914,unknown,2,2023-02-14T17:51:12.269-08:00,2023-02-14T17:43:35.488-08:00,142,1.222332,0,0,100.5051,0,0,2023-02-14T17:51:17.394-08:00,698118680,0,0.9500008,99.2728,1,0.73,0
2023-02-14T17:52:07.683-08:00,1676425927,34.06842235,-118.442634,127.0024,1.401739,1.867988,268.2185059,57.45672323,9.718103133,14.49066268,-9999,17096.00351,1.222732544,0.076431274,0.040512085,17095.98349,-1.69117384,0.990230457,-0.81881911,0.632000864,0.075889707,0.236242935,0.517491162,-0.614464521,0.394460261,XArbitraryZVertical,0.093856817,0.551231415,-0.72952426,0.39386424,0.571162343,0.730339706,-0.374669641,0,0,0,-1,-1,17066.2221,walking,2,2023-02-14T17:51:37.892-08:00,2023-02-14T17:43:35.488-08:00,210,1.096999,0.7044109,1.946317,150.6738,0,0,2023-02-14T17:52:06.077-08:00,698118726.1,0,-5.439999,99.34134,1,0.73,0
2023-02-14T17:52:07.718-08:00,1676425927,34.06842235,-118.442634,127.0024,1.401739,1.867988,268.2185059,57.45672323,9.718103133,14.49066268,-9999,17096.03854,1.504562378,0.217498779,-0.121002197,17096.01351,-1.686740118,1.002120961,-0.798087715,-0.048281077,0.496702105,1.087261438,0.692627668,-0.622440398,0.406535089,XArbitraryZVertical,0.103985757,0.548838777,-0.727712303,0.397991925,0.588210225,0.716022491,-0.375925928,0,0,0,-1,-1,17066.2221,walking,2,2023-02-14T17:51:37.892-08:00,2023-02-14T17:43:35.488-08:00,210,1.096999,0.7044109,1.946317,150.6738,0,0,2023-02-14T17:52:06.077-08:00,698118726.1,0,-5.439999,99.34134,1,0.73,0
2023-02-14T17:52:07.753-08:00,1676425927,34.06842235,-118.442634,127.0024,1.401739,1.867988,268.2185059,57.45672323,9.718103133,14.49066268,-9999,17096.07357,1.231109619,0.443374634,-0.384368896,17096.04354,-1.636988711,1.054128091,-0.764324704,-0.809023201,0.591117084,2.019058943,0.87693572,-0.474551022,0.235581428,XArbitraryZVertical,0.120508848,0.554243432,-0.713688062,0.411024376,0.627626598,0.692049682,-0.356583685,0,0,0,-1,-1,17066.2221,walking,2,2023-02-14T17:51:37.892-08:00,2023-02-14T17:43:35.488-08:00,210,1.096999,0.7044109,1.946317,150.6738,0,0,2023-02-14T17:52:06.077-08:00,698118726.1,0,-5.439999,99.34134,1,0.73,0
2023-02-14T17:52:07.788-08:00,1676425927,34.06842235,-118.442634,127.0024,1.401739,1.867988,268.2185059,57.45672323,9.718103133,14.49066268,-9999,17096.1086,1.113540649,0.451416016,-0.357284546,17096.10359,-1.48059867,1.184192454,-0.662256247,-0.756474614,0.358721256,2.493182182,0.378864527,-0.122710228,-0.106208861,XArbitraryZVertical,0.156834347,0.571605465,-0.663238983,0.456929079,0.730403602,0.614897728,-0.297340363,0,0,0,-1,-1,17066.2221,walking,2,2023-02-14T17:51:37.892-08:00,2023-02-14T17:43:35.488-08:00,210,1.096999,0.7044109,1.946317,150.6738,0,0,2023-02-14T17:52:06.077-08:00,698118726.1,0,-5.439999,99.34134,1,0.73,0
2023-02-14T17:52:07.823-08:00,1676425927,34.06842235,-118.442634,127.0024,1.401739,1.867988,268.2185059,57.45672323,9.718103133,14.49066268,-9999,17096.14363,1.367355347,0.338745117,-0.19078064,17096.13362,-1.429877306,1.226983909,-0.594696475,-0.264660895,0.432588905,2.701344728,0.475574434,-0.192520559,0.042209148,XArbitraryZVertical,0.179968573,0.572718944,-0.639876056,0.479752963,0.779842377,0.560257375,-0.27920866,0,0,0,-1,-1,17066.2221,walking,2,2023-02-14T17:51:37.892-08:00,2023-02-14T17:43:35.488-08:00,210,1.096999,0.7044109,1.946317,150.6738,0,0,2023-02-14T17:52:06.077-08:00,698118726.1,0,-5.439999,99.34134,1,0.73,0
2023-02-14T17:52:07.858-08:00,1676425927,34.06842235,-118.442634,127.0024,1.401739,1.867988,268.2185059,57.45672323,9.718103133,14.49066268,-9999,17096.17866,1.254104614,0.309631348,-0.235626221,17096.16365,-1.385385998,1.259023763,-0.517983175,-0.666000366,0.097188473,2.895175934,0.551696658,-0.175243676,0.051953256,XArbitraryZVertical,0.204139915,0.570152028,-0.615015057,0.504985207,0.826934934,0.4951289,-0.266507119,0,0,0,-1,-1,17066.2221,walking,2,2023-02-14T17:51:37.892-08:00,2023-02-14T17:43:35.488-08:00,210,1.096999,0.7044109,1.946317,150.6738,0,0,2023-02-14T17:52:06.077-08:00,698118726.1,0,-5.439999,99.34134,1,0.73,0
2023-02-14T17:52:07.893-08:00,1676425927,34.06842235,-118.442634,127.0024,1.401739,1.867988,268.2185059,57.45672323,9.718103133,14.49066268,-9999,17096.21369,0.99420166,0.360244751,-0.226135254,17096.19367,-1.316097723,1.289163552,-0.445809154,-1.935997248,-0.177359059,2.837981701,0.304732144,-0.116734982,0.024533898,XArbitraryZVertical,0.218573233,0.571703947,-0.581860464,0.535554502,0.866715491,0.431188077,-0.250760674,0,0,0,-1,-1,17066.2221,walking,2,2023-02-14T17:51:37.892-08:00,2023-02-14T17:43:35.488-08:00,210,1.096999,0.7044109,1.946317,150.6738,0,0,2023-02-14T17:52:06.077-08:00,698118726.1,0,-5.439999,99.34134,1,0.73,0
2023-02-14T17:52:07.928-08:00,1676425927,34.06842235,-118.442634,127.0024,1.401739,1.867988,268.2185059,57.45672323,9.718103133,14.49066268,-9999,17096.24872,0.722488403,0.580551147,-0.277740479,17096.2237,-1.208847819,1.323725141,-0.388238884,-3.296966314,-0.384664237,2.537993908,0.060644567,-0.00032416,-0.010956079,XArbitraryZVertical,0.217491992,0.58267941,-0.53742453,0.569523181,0.897469938,0.378558964,-0.226363882,0,0,0,-1,-1,17066.2221,walking,2,2023-02-14T17:51:37.892-08:00,2023-02-14T17:43:35.488-08:00,210,1.096999,0.7044109,1.946317,150.6738,0,0,2023-02-14T17:52:06.077-08:00,698118726.1,0,-5.439999,99.34134,1,0.73,0
2023-02-14T17:52:07.963-08:00,1676425927,34.06842235,-118.442634,127.0024,1.401739,1.867988,268.2185059,57.45672323,9.718103133,14.49066268,-9999,17096.28375,0.565002441,0.627593994,-0.251098633,17096.25372,-1.084525694,1.354719524,-0.342070831,-3.187978745,-0.4717471,2.194130182,-0.197667062,0.245112449,-0.075763047,XArbitraryZVertical,0.205123889,0.59744076,-0.487643602,0.602654494,0.920155406,0.335438669,-0.201977462,0,0,0,-1,-1,17066.2221,walking,2,2023-02-14T17:51:37.892-08:00,2023-02-14T17:43:35.488-08:00,210,1.096999,0.7044109,1.946317,150.6738,0,0,2023-02-14T17:52:06.077-08:00,698118726.1,0,-5.439999,99.34134,1,0.73,0
2023-02-14T17:52:07.998-08:00,1676425927,34.06842235,-118.442634,127.0024,1.401739,1.867988,268.2185059,57.45672323,9.718103133,14.49066268,-9999,17096.31878,0.523284912,0.594421387,-0.151412964,17096.31378,-0.945397735,1.376273933,-0.255066815,-0.519418299,-0.234381676,1.666836143,-0.407480836,0.367593437,0.012193576,XArbitraryZVertical,0.199335854,0.605593254,-0.420743652,0.645365518,0.94939661,0.252310067,-0.187044054,0,0,0,-1,-1,17066.2221,walking,2,2023-02-14T17:51:37.892-08:00,2023-02-14T17:43:35.488-08:00,210,1.096999,0.7044109,1.946317,150.6738,0,0,2023-02-14T17:52:06.077-08:00,698118726.1,0,-5.439999,99.34134,1,0.73,0
2023-02-14T17:52:08.033-08:00,1676425927,34.06842235,-118.442634,127.0024,1.401739,1.867988,268.2185059,57.45672323,9.718103133,14.49066268,-9999,17096.35381,0.59034729,0.589782715,-0.127319336,17096.3438,-0.931539886,1.375535452,-0.208451832,0.164729521,-0.020587362,1.544702172,-0.423475564,0.374490619,0.070407048,XArbitraryZVertical,0.21173179,0.600215365,-0.404138192,0.656950027,0.959760785,0.206945494,-0.189822331,0,0,0,-1,-1,17066.2221,walking,2,2023-02-14T17:51:37.892-08:00,2023-02-14T17:43:35.488-08:00,210,1.096999,0.7044109,1.946317,150.6738,0,0,2023-02-14T17:52:06.077-08:00,698118726.1,0,-5.439999,99.34134,1,0.73,0
2023-02-14T17:52:08.068-08:00,1676425927,34.06842235,-118.442634,127.0024,1.401739,1.867988,268.2185059,57.45672323,9.718103133,14.49066268,-9999,17096.38884,0.807525635,0.613128662,-0.251190186,17096.37383,-0.93539288,1.377625021,-0.160454808,0.676250279,0.177019998,1.548442721,-0.297254741,0.428550661,0.029212624,XArbitraryZVertical,0.230411079,0.593428707,-0.392391992,0.663913723,0.968793869,0.159767196,-0.189506203,0,0,0,-1,-1,17066.2221,walking,2,2023-02-14T17:51:37.892-08:00,2023-02-14T17:43:35.488-08:00,210,1.096999,0.7044109,1.946317,150.6738,0,0,2023-02-14T17:52:06.077-08:00,698118726.1,0,-5.439999,99.34134,1,0.73,0
2023-02-14T17:52:08.103-08:00,1676425927,34.06842235,-118.442634,127.0024,1.401739,1.867988,268.2185059,57.45672323,9.718103133,14.49066268,-9999,17096.42387,0.918792725,0.656646729,-0.231918335,17096.40386,-0.951579667,1.380329193,-0.109727716,0.934017599,0.124665111,1.555109978,-0.109616637,0.507771373,-0.082435608,XArbitraryZVertical,0.253589445,0.584468026,-0.383717266,0.668468848,0.976010621,0.109507658,-0.188179046,0,0,0,-1,-1,17066.2221,walking,2,2023-02-14T17:51:37.892-08:00,2023-02-14T17:43:35.488-08:00,210,1.096999,0.7044109,1.946317,150.6738,0,0,2023-02-14T17:52:06.077-08:00,698118726.1,0,-5.439999,99.34134,1,0.73,0
2023-02-14T17:52:08.138-08:00,1676425927,34.06842235,-118.442634,127.0024,1.401739,1.867988,268.2185059,57.45672323,9.718103133,14.49066268,-9999,17096.4589,1.061706543,0.66394043,-0.223739624,17096.43388,-0.969678146,1.38214793,-0.060840152,0.853632987,0.123981543,1.370570898,-0.05003655,0.601306736,-0.034556285,XArbitraryZVertical,0.276180923,0.574571021,-0.376118064,0.672404251,0.980441272,0.060802627,-0.187184483,0,0,0,-1,-1,17066.2221,walking,2,2023-02-14T17:51:37.892-08:00,2023-02-14T17:43:35.488-08:00,210,1.096999,0.7044109,1.946317,150.6738,0,0,2023-02-14T17:52:06.077-08:00,698118726.1,0,-5.439999,99.34134,1,0.73,0
2023-02-14T17:52:08.174-08:00,1676425927,34.06842235,-118.442634,127.0024,1.401739,1.867988,268.2185059,57.45672323,9.718103133,14.49066268,-9999,17096.49394,1.096313477,0.703765869,-0.207565308,17096.46391,-0.98558275,1.38518137,-0.021798338,0.580447674,0.084437519,0.937582612,0.07911706,0.642143846,-0.039232492,XArbitraryZVertical,0.29467399,0.566492437,-0.370194732,0.67469209,0.982589424,0.021796612,-0.184507117,0,0,0,-1,-1,17066.2221,walking,2,2023-02-14T17:51:37.892-08:00,2023-02-14T17:43:35.488-08:00,210,1.096999,0.7044109,1.946317,150.6738,0,0,2023-02-14T17:52:06.077-08:00,698118726.1,0,-5.439999,99.34134,1,0.73,0
2023-02-14T17:52:08.208-08:00,1676425927,34.06842235,-118.442634,127.0024,1.401739,1.867988,268.2185059,57.45672323,9.718103133,14.49066268,-9999,17096.52897,1.371459961,0.708618164,-0.216812134,17096.52396,-0.993394613,1.391394143,-0.005165392,0.1337879,0.272563696,-0.468848437,0.249384701,0.686378181,0.003435925,XArbitraryZVertical,0.303670513,0.564415385,-0.367237683,0.674059237,0.983937323,0.005165369,-0.178438991,0,0,0,-1,-1,17066.2221,walking,2,2023-02-14T17:51:37.892-08:00,2023-02-14T17:43:35.488-08:00,210,1.096999,0.7044109,1.946317,150.6738,0,0,2023-02-14T17:52:06.077-08:00,698118726.1,0,-5.439999,99.34134,1,0.73,0
2023-02-14T17:52:08.243-08:00,1676425927,34.06842235,-118.442634,127.0024,1.401739,1.867988,268.2185059,57.45672323,9.718103133,14.49066268,-9999,17096.564,1.276123047,0.728561401,-0.382293701,17096.55399,-1.006770673,1.397269237,-0.026973747,0.45660308,0.067455612,-1.118152857,0.520259202,0.727210402,-0.164990783,XArbitraryZVertical,0.30118843,0.568320482,-0.376943566,0.666491443,0.984623551,0.026970476,-0.172594726,0,0,0,-1,-1,17066.2221,walking,2,2023-02-14T17:51:37.892-08:00,2023-02-14T17:43:35.488-08:00,210,1.096999,0.7044109,1.946317,150.6738,0,0,2023-02-14T17:52:06.077-08:00,698118726.1,0,-5.439999,99.34134,1,0.73,0
2023-02-14T17:52:08.278-08:00,1676425927,34.06842235,-118.442634,127.0024,1.401739,1.867988,268.2185059,57.45672323,9.718103133,14.49066268,-9999,17096.59903,0.945159912,0.636886597,-0.171798706,17096.58401,-1.031065057,1.397107123,-0.068812358,0.688705921,0.103210285,-1.939353704,0.018735111,0.620618761,-0.146515772,XArbitraryZVertical,0.293946372,0.572181289,-0.396548752,0.654945127,0.982622802,0.068758063,-0.172408208,0,0,0,-1,-1,17066.2221,walking,2,2023-02-14T17:51:37.892-08:00,2023-02-14T17:43:35.488-08:00,210,1.096999,0.7044109,1.946317,150.6738,0,0,2023-02-14T17:52:06.077-08:00,698118726.1,0,-5.439999,99.34134,1,0.73,0
2023-02-14T17:52:08.313-08:00,1676425928,34.06842196,-118.442649,127.3273,1.549788,1.640551,268.2185059,47.00192876,9.618488537,14.55697467,-9999,17096.63406,1.35067749,0.539962769,-0.133743286,17096.61404,-1.073206571,1.400286031,-0.131357141,1.429268479,0.3704153,-2.548623323,0.066464007,0.478822529,0.040263191,XArbitraryZVertical,0.28554534,0.578231919,-0.426456792,0.634228782,0.977008164,0.130979717,-0.168223411,0,0,0,-1,-1,17066.2221,walking,2,2023-02-14T17:51:37.892-08:00,2023-02-14T17:43:35.488-08:00,210,1.096999,0.7044109,1.946317,150.6738,0,0,2023-02-14T17:52:06.077-08:00,698118726.1,0,-5.439999,99.34134,1,0.73,0
2023-02-14T17:52:08.348-08:00,1676425928,34.06842196,-118.442649,127.3273,1.549788,1.640551,268.2185059,47.00192876,9.618488537,14.55697467,-9999,17096.66909,1.489486694,0.477233887,-0.217330933,17096.64407,-1.143852915,1.399594533,-0.198943662,2.332562923,0.284534484,-2.580964088,0.438046694,0.331617117,0.018080488,XArbitraryZVertical,0.282999326,0.580007079,-0.465778836,0.605436258,0.965944827,0.197633937,-0.167006344,0,0,0,-1,-1,17066.2221,walking,2,2023-02-14T17:51:37.892-08:00,2023-02-14T17:43:35.488-08:00,210,1.096999,0.7044109,1.946317,150.6738,0,0,2023-02-14T17:52:06.077-08:00,698118726.1,0,-5.439999,99.34134,1,0.73,0
2023-02-14T17:52:08.384-08:00,1676425928,34.06842196,-118.442649,127.3273,1.549788,1.640551,268.2185059,47.00192876,9.618488537,14.55697467,-9999,17096.70412,1.173721313,0.454544067,-0.193511963,17096.67409,-1.231240975,1.38197309,-0.259974413,2.357522011,-0.157642156,-2.452178717,0.54026705,0.220177978,-0.035935253,XArbitraryZVertical,0.283362007,0.573592308,-0.508692616,0.576133197,0.949219465,0.257055819,-0.18139568,0,0,0,-1,-1,17066.2221,walking,2,2023-02-14T17:51:37.892-08:00,2023-02-14T17:43:35.488-08:00,210,1.096999,0.7044109,1.946317,150.6738,0,0,2023-02-14T17:52:06.077-08:00,698118726.1,0,-5.439999,99.34134,1,0.73,0
2023-02-14T17:52:08.418-08:00,1676425928,34.06842196,-118.442649,127.3273,1.549788,1.640551,268.2185059,47.00192876,9.618488537,14.55697467,-9999,17096.73915,0.937683105,0.322937012,-0.094619751,17096.73415,-1.368258754,1.312082559,-0.39177631,0.917249799,-0.619797289,-2.863054276,0.102955759,-0.034525484,0.131472588,XArbitraryZVertical,0.258610355,0.561154281,-0.58323529,0.527316897,0.893473625,0.381830752,-0.236453116,0,0,0,-1,-1,17066.2221,walking,2,2023-02-14T17:51:37.892-08:00,2023-02-14T17:43:35.488-08:00,210,1.096999,0.7044109,1.946317,150.6738,0,0,2023-02-14T17:52:06.077-08:00,698118726.1,0,-5.439999,99.34134,1,0.73,0
2023-02-14T17:52:08.453-08:00,1676425928,34.06842196,-118.442649,127.3273,1.549788,1.640551,268.2185059,47.00192876,9.618488537,14.55697467,-9999,17096.77418,0.80847168,0.266036987,-0.034179688,17096.76417,-1.420254867,1.271892632,-0.472506284,0.61790961,-0.615360916,-3.174128532,-0.014812827,-0.190455675,0.206177115,XArbitraryZVertical,0.233663511,0.560622555,-0.615329902,0.502466687,0.850948632,0.455119371,-0.262207419,0,0,0,-1,-1,17066.2221,walking,2,2023-02-14T17:51:37.892-08:00,2023-02-14T17:43:35.488-08:00,210,1.096999,0.7044109,1.946317,150.6738,0,0,2023-02-14T17:52:06.077-08:00,698118726.1,0,-5.439999,99.34134,1,0.73,0
2023-02-14T17:52:08.489-08:00,1676425928,34.06842196,-118.442649,127.3273,1.549788,1.640551,268.2185059,47.00192876,9.618488537,14.55697467,-9999,17096.80921,0.850540161,0.181365967,0.012115479,17096.7942,-1.47682269,1.227296134,-0.55871509,0.702688634,-0.508436382,-3.271743774,0.03951925,-0.250876546,0.278614283,XArbitraryZVertical,0.205873823,0.561096967,-0.646399819,0.474292554,0.798401833,0.530097127,-0.28557232,0,0,0,-1,-1,17066.2221,walking,2,2023-02-14T17:51:37.892-08:00,2023-02-14T17:43:35.488-08:00,210,1.096999,0.7044109,1.946317,150.6738,0,0,2023-02-14T17:52:06.077-08:00,698118726.1,0,-5.439999,99.34134,1,0.73,0
2023-02-14T17:52:08.524-08:00,1676425928,34.06842196,-118.442649,127.3273,1.549788,1.640551,268.2185059,47.00192876,9.618488537,14.55697467,-9999,17096.84424,0.77520752,-0.011611938,0.013763428,17096.82422,-1.541409357,1.175736982,-0.639206648,0.617608428,-0.492516816,-2.936592817,0.087649226,-0.485673249,0.325053483,XArbitraryZVertical,0.179218396,0.559858156,-0.675344299,0.445364765,0.740750432,0.596558928,-0.308879226,0,0,0,-1,-1,17066.2221,walking,2,2023-02-14T17:51:37.892-08:00,2023-02-14T17:43:35.488-08:00,210,1.096999,0.7044109,1.946317,150.6738,0,0,2023-02-14T17:52:06.077-08:00,698118726.1,0,-5.439999,99.34134,1,0.73,0
2023-02-14T17:52:08.559-08:00,1676425928,34.06842196,-118.442649,127.3273,1.549788,1.640551,268.2185059,47.00192876,9.618488537,14.55697467,-9999,17096.87927,0.76260376,0.102783203,-0.078262329,17096.85425,-1.59883578,1.125864303,-0.706108175,0.292804182,-0.445785344,-2.329961777,0.085129797,-0.655743957,0.327378809,XArbitraryZVertical,0.155167367,0.558730943,-0.69755946,0.4208961,0.686812282,0.648877442,-0.327485651,0,0,0,-1,-1,17066.2221,walking,2,2023-02-14T17:51:37.892-08:00,2023-02-14T17:43:35.488-08:00,210,1.096999,0.7044109,1.946317,150.6738,0,0,2023-02-14T17:52:06.077-08:00,698118726.1,0,-5.439999,99.34134,1,0.73,0
2023-02-14T17:52:08.594-08:00,1676425928,34.06842196,-118.442649,127.3273,1.549788,1.640551,268.2185059,47.00192876,9.618488537,14.55697467,-9999,17096.9143,0.752670288,0.163833618,-0.117584229,17096.88428,-1.638960353,1.086489018,-0.759215117,-0.031737361,-0.396896601,-1.715736389,0.120647192,-0.585569143,0.259469628,XArbitraryZVertical,0.134337737,0.559542109,-0.711798093,0.402752392,0.641956508,0.688352346,-0.337731987,0,0,0,-1,-1,17066.2221,walking,2,2023-02-14T17:51:37.892-08:00,2023-02-14T17:43:35.488-08:00,210,1.096999,0.7044109,1.946317,150.6738,0,0,2023-02-14T17:52:06.077-08:00,698118726.1,0,-5.439999,99.34134,1,0.73,0
2023-02-14T17:52:08.629-08:00,1676425928,34.06842196,-118.442649,127.3273,1.549788,1.640551,268.2185059,47.00192876,9.618488537,14.55697467,-9999,17096.94933,0.896774292,0.13899231,-0.097595215,17096.94433,-1.692359669,1.027003668,-0.811919052,0.330590069,-0.274349511,-0.485528469,0.240709782,-0.585686028,0.245207161,XArbitraryZVertical,0.109916489,0.556695714,-0.72776351,0.385186206,0.588849425,0.725609004,-0.356016487,0,0,0,-1,-1,17066.2221,walking,2,2023-02-14T17:51:37.892-08:00,2023-02-14T17:43:35.488-08:00,210,1.096999,0.7044109,1.946317,150.6738,0,0,2023-02-14T17:52:06.077-08:00,698118726.1,0,-5.439999,99.34134,1,0.73,0
2023-02-14T17:52:08.664-08:00,1676425928,34.06842196,-118.442649,127.3273,1.549788,1.640551,268.2185059,47.00192876,9.618488537,14.55697467,-9999,17096.98436,1.07623291,0.114395142,-0.051971436,17096.97436,-1.711997031,1.00544701,-0.812571032,0.359298825,-0.198942527,-0.03505443,0.436481178,-0.590361178,0.281046838,XArbitraryZVertical,0.107267265,0.551640546,-0.732720792,0.383805319,0.580639064,0.726057529,-0.368372887,0,0,0,-1,-1,17066.2221,walking,2,2023-02-14T17:51:37.892-08:00,2023-02-14T17:43:35.488-08:00,210,1.096999,0.7044109,1.946317,150.6738,0,0,2023-02-14T17:52:06.077-08:00,698118726.1,0,-5.439999,99.34134,1,0.73,0
2023-02-14T17:52:08.699-08:00,1676425928,34.06842196,-118.442649,127.3273,1.549788,1.640551,268.2185059,47.00192876,9.618488537,14.55697467,-9999,17097.0194,1.270141602,0.129486084,-0.006210327,17097.00438,-1.714213506,1.000518128,-0.803293964,0.037601233,0.020241227,0.55633378,0.547359407,-0.608944714,0.349643141,XArbitraryZVertical,0.109182474,0.548319124,-0.733279485,0.386944925,0.584461153,0.71964711,-0.374850661,0,0,0,-1,-1,17066.2221,walking,2,2023-02-14T17:51:37.892-08:00,2023-02-14T17:43:35.488-08:00,210,1.096999,0.7044109,1.946317,150.6738,0,0,2023-02-14T17:52:06.077-08:00,698118726.1,0,-5.439999,99.34134,1,0.73,0
2023-02-14T17:52:08.734-08:00,1676425928,34.06842196,-118.442649,127.3273,1.549788,1.640551,268.2185059,47.00192876,9.618488537,14.55697467,-9999,17097.05443,1.384384155,0.259048462,-0.111099243,17097.03441,-1.683254517,1.027286335,-0.781952984,-0.562572539,0.265948415,1.443807364,0.728857875,-0.558975637,0.356755525,XArbitraryZVertical,0.117626832,0.55017938,-0.725242437,0.396849881,0.607293189,0.704666495,-0.366933167,0,0,0,-1,-1,17066.2221,walking,2,2023-02-14T17:51:37.892-08:00,2023-02-14T17:43:35.488-08:00,214,1.090328,0.7094391,1.921366,153.8174,0,0,2023-02-14T17:52:08.639-08:00,698118728.7,0,-6.669998,99.35678,1,0.73,0
2023-02-14T17:52:08.769-08:00,1676425928,34.06842196,-118.442649,127.3273,1.549788,1.640551,268.2185059,47.00192876,9.618488537,14.55697467,-9999,17097.08946,1.098632813,0.42640686,-0.300537109,17097.06443,-1.613655127,1.084419759,-0.745538453,-1.114791393,0.311153352,2.239425182,0.70634681,-0.387260377,0.210417449,XArbitraryZVertical,0.131221279,0.557733652,-0.70606007,0.416164977,0.649518609,0.678367496,-0.343428284,0,0,0,-1,-1,17066.2221,walking,2,2023-02-14T17:51:37.892-08:00,2023-02-14T17:43:35.488-08:00,214,1.090328,0.7094391,1.921366,153.8174,0,0,2023-02-14T17:52:08.639-08:00,698118728.7,0,-6.669998,99.35678,1,0.73,0
2023-02-14T17:52:08.804-08:00,1676425928,34.06842196,-118.442649,127.3273,1.549788,1.640551,268.2185059,47.00192876,9.618488537,14.55697467,-9999,17097.12449,1.101531982,0.438613892,-0.305511475,17097.09446,-1.529611159,1.148833754,-0.696775661,-1.115065932,0.263044357,2.43912673,0.398985922,-0.215341449,0.013554305,XArbitraryZVertical,0.146826923,0.566918099,-0.68018641,0.440899185,0.699646831,0.64174825,-0.314091444,0,0,0,-1,-1,17066.2221,walking,2,2023-02-14T17:51:37.892-08:00,2023-02-14T17:43:35.488-08:00,214,1.090328,0.7094391,1.921366,153.8174,0,0,2023-02-14T17:52:08.639-08:00,698118728.7,0,-6.669998,99.35678,1,0.73,0
2023-02-14T17:52:08.839-08:00,1676425928,34.06842196,-118.442649,127.3273,1.549788,1.640551,268.2185059,47.00192876,9.618488537,14.55697467,-9999,17097.15952,1.324523926,0.289154053,-0.187530518,17097.15451,-1.413238877,1.233569264,-0.571159981,-0.515007436,0.196128502,2.710389376,0.469262719,-0.232777476,0.058581471,XArbitraryZVertical,0.185553803,0.571308032,-0.6321148,0.489497513,0.793890357,0.540608287,-0.27835384,0,0,0,-1,-1,17066.2221,walking,2,2023-02-14T17:51:37.892-08:00,2023-02-14T17:43:35.488-08:00,214,1.090328,0.7094391,1.921366,153.8174,0,0,2023-02-14T17:52:08.639-08:00,698118728.7,0,-6.669998,99.35678,1,0.73,0
2023-02-14T17:52:08.874-08:00,1676425928,34.06842196,-118.442649,127.3273,1.549788,1.640551,268.2185059,47.00192876,9.618488537,14.55697467,-9999,17097.19455,1.18927002,0.320907593,-0.165802002,17097.18454,-1.352587847,1.265368567,-0.498745555,-1.399806142,-0.155174077,2.91369915,0.465301573,-0.186652631,0.091737986,XArbitraryZVertical,0.203436995,0.571470071,-0.602958073,0.518147408,0.837539434,0.478324294,-0.26407069,0,0,0,-1,-1,17066.2221,walking,2,2023-02-14T17:51:37.892-08:00,2023-02-14T17:43:35.488-08:00,214,1.090328,0.7094391,1.921366,153.8174,0,0,2023-02-14T17:52:08.639-08:00,698118728.7,0,-6.669998,99.35678,1,0.73,0
2023-02-14T17:52:08.909-08:00,1676425928,34.06842196,-118.442649,127.3273,1.549788,1.640551,268.2185059,47.00192876,9.618488537,14.55697467,-9999,17097.22958,0.95513916,0.421234131,-0.156448364,17097.21457,-1.260757666,1.298657125,-0.430797357,-2.533599377,-0.337004602,2.904673338,0.213520944,-0.05338344,0.082032815,XArbitraryZVertical,0.210656226,0.577500716,-0.563040014,0.55236104,0.875193536,0.417595446,-0.244233757,0,0,0,-1,-1,17066.2221,walking,2,2023-02-14T17:51:37.892-08:00,2023-02-14T17:43:35.488-08:00,214,1.090328,0.7094391,1.921366,153.8174,0,0,2023-02-14T17:52:08.639-08:00,698118728.7,0,-6.669998,99.35678,1,0.73,0
2023-02-14T17:52:08.945-08:00,1676425928,34.06842196,-118.442649,127.3273,1.549788,1.640551,268.2185059,47.00192876,9.618488537,14.55697467,-9999,17097.26461,0.809616089,0.661697388,-0.231582642,17097.24459,-1.14337184,1.332586506,-0.371499007,-3.201180696,-0.434031844,2.698689938,-0.000412703,0.12348333,0.045519978,XArbitraryZVertical,0.20656083,0.589405763,-0.514010831,0.58798491,0.905472398,0.363012582,-0.219866946,0,0,0,-1,-1,17066.2221,walking,2,2023-02-14T17:51:37.892-08:00,2023-02-14T17:43:35.488-08:00,214,1.090328,0.7094391,1.921366,153.8174,0,0,2023-02-14T17:52:08.639-08:00,698118728.7,0,-6.669998,99.35678,1,0.73,0
2023-02-14T17:52:08.979-08:00,1676425928,34.06842196,-118.442649,127.3273,1.549788,1.640551,268.2185059,47.00192876,9.618488537,14.55697467,-9999,17097.29964,0.722198486,0.72076416,-0.237594604,17097.27462,-1.036942701,1.355163135,-0.314960079,-2.278106689,-0.43077606,2.438058853,-0.135911942,0.370534569,-0.03653425,XArbitraryZVertical,0.200696112,0.598331592,-0.466700547,0.619605548,0.928789139,0.309778512,-0.203440756,0,0,0,-1,-1,17066.2221,walking,2,2023-02-14T17:51:37.892-08:00,2023-02-14T17:43:35.488-08:00,214,1.090328,0.7094391,1.921366,153.8174,0,0,2023-02-14T17:52:08.639-08:00,698118728.7,0,-6.669998,99.35678,1,0.73,0
2023-02-14T17:52:09.014-08:00,1676425928,34.06842196,-118.442649,127.3273,1.549788,1.640551,268.2185059,47.00192876,9.618488537,14.55697467,-9999,17097.33467,0.679367065,0.67326355,-0.198272705,17097.30464,-0.972746032,1.361923975,-0.258543939,-0.957676411,-0.312470138,2.081100941,-0.223552525,0.46509096,-0.037129626,XArbitraryZVertical,0.203260923,0.598709026,-0.431886065,0.6432004,0.945750892,0.25567317,-0.200464994,0,0,0,-1,-1,17066.2221,walking,2,2023-02-14T17:51:37.892-08:00,2023-02-14T17:43:35.488-08:00,214,1.090328,0.7094391,1.921366,153.8174,0,0,2023-02-14T17:52:08.639-08:00,698118728.7,0,-6.669998,99.35678,1,0.73,0
2023-02-14T17:52:09.049-08:00,1676425928,34.06842196,-118.442649,127.3273,1.549788,1.640551,268.2185059,47.00192876,9.618488537,14.55697467,-9999,17097.3697,0.656539917,0.654342651,-0.23008728,17097.3647,-0.935990338,1.359847476,-0.158998933,0.196110874,-0.034936473,1.365911007,-0.305235505,0.503596425,-0.017237172,XArbitraryZVertical,0.227609682,0.587214204,-0.394237622,0.669290547,0.965498447,0.158329844,-0.206746623,0,0,0,-1,-1,17066.2221,walking,2,2023-02-14T17:51:37.892-08:00,2023-02-14T17:43:35.488-08:00,214,1.090328,0.7094391,1.921366,153.8174,0,0,2023-02-14T17:52:08.639-08:00,698118728.7,0,-6.669998,99.35678,1,0.73,0
2023-02-14T17:52:09.084-08:00,1676425928,34.06842196,-118.442649,127.3273,1.549788,1.640551,268.2185059,47.00192876,9.618488537,14.55697467,-9999,17097.40473,0.742019653,0.656799316,-0.247085571,17097.39472,-0.937565011,1.360189618,-0.122302023,0.404944777,0.058747072,0.992283285,-0.285617471,0.525784016,-0.037625551,XArbitraryZVertical,0.241201217,0.581443136,-0.384909997,0.674974197,0.970599771,0.121997356,-0.207491711,0,0,0,-1,-1,17066.2221,walking,2,2023-02-14T17:51:37.892-08:00,2023-02-14T17:43:35.488-08:00,214,1.090328,0.7094391,1.921366,153.8174,0,0,2023-02-14T17:52:08.639-08:00,698118728.7,0,-6.669998,99.35678,1,0.73,0
2023-02-14T17:52:09.119-08:00,1676425928,34.06842196,-118.442649,127.3273,1.549788,1.640551,268.2185059,47.00192876,9.618488537,14.55697467,-9999,17097.43976,0.86479187,0.6587677,-0.24206543,17097.42475,-0.947021279,1.361658539,-0.095785422,0.550444424,0.0907363,0.597084045,-0.167512894,0.562197864,-0.038818583,XArbitraryZVertical,0.25359519,0.576504174,-0.380757815,0.677019779,0.973726153,0.09563902,-0.20666483,0,0,0,-1,-1,17066.2221,walking,2,2023-02-14T17:51:37.892-08:00,2023-02-14T17:43:35.488-08:00,214,1.090328,0.7094391,1.921366,153.8174,0,0,2023-02-14T17:52:08.639-08:00,698118728.7,0,-6.669998,99.35678,1,0.73,0
2023-02-14T17:52:09.155-08:00,1676425928,34.06842196,-118.442649,127.3273,1.549788,1.640551,268.2185059,47.00192876,9.618488537,14.55697467,-9999,17097.47479,0.979141235,0.60874939,-0.197250366,17097.45478,-0.960818233,1.363216458,-0.081743527,0.490338653,0.105522707,0.119008169,-0.088531077,0.562924504,-0.021829754,XArbitraryZVertical,0.262787188,0.57292304,-0.381411257,0.676186071,0.975265145,0.081652522,-0.205404162,0,0,0,-1,-1,17066.2221,walking,2,2023-02-14T17:51:37.892-08:00,2023-02-14T17:43:35.488-08:00,214,1.090328,0.7094391,1.921366,153.8174,0,0,2023-02-14T17:52:08.639-08:00,698118728.7,0,-6.669998,99.35678,1,0.73,0
2023-02-14T17:52:09.189-08:00,1676425928,34.06842196,-118.442649,127.3273,1.549788,1.640551,268.2185059,47.00192876,9.618488537,14.55697467,-9999,17097.50982,1.647399902,0.71232605,-0.275939941,17097.4848,-0.973770219,1.367348294,-0.082772211,0.422203332,0.312140912,-0.335832089,0.043951035,0.52289784,0.016251266,XArbitraryZVertical,0.266929976,0.572774421,-0.385510045,0.672353968,0.976022661,0.082677729,-0.201355696,0,0,0,-1,-1,17066.2221,walking,2,2023-02-14T17:51:37.892-08:00,2023-02-14T17:43:35.488-08:00,214,1.090328,0.7094391,1.921366,153.8174,0,0,2023-02-14T17:52:08.639-08:00,698118728.7,0,-6.669998,99.35678,1,0.73,0
2023-02-14T17:52:09.224-08:00,1676425928,34.06842196,-118.442649,127.3273,1.549788,1.640551,268.2185059,47.00192876,9.618488537,14.55697467,-9999,17097.54485,1.241577148,0.622817993,-0.340652466,17097.51483,-0.996100704,1.377513562,-0.092933567,0.817046881,0.279612422,-0.609351039,0.670255721,0.619526207,-0.084687293,XArbitraryZVertical,0.27179189,0.574893747,-0.39435051,0.66341095,0.977144182,0.09279985,-0.191252694,0,0,0,-1,-1,17066.2221,walking,2,2023-02-14T17:51:37.892-08:00,2023-02-14T17:43:35.488-08:00,214,1.090328,0.7094391,1.921366,153.8174,0,0,2023-02-14T17:52:08.639-08:00,698118728.7,0,-6.669998,99.35678,1,0.73,0
2023-02-14T17:52:09.259-08:00,1676425928,34.06842196,-118.442649,127.3273,1.549788,1.640551,268.2185059,47.00192876,9.618488537,14.55697467,-9999,17097.57989,0.745834351,0.398925781,-0.024154663,17097.57488,-1.039379544,1.360927065,-0.163989412,0.258536637,-0.017122123,-2.222385883,-0.206406713,0.343519509,0.093476474,XArbitraryZVertical,0.256138196,0.575868665,-0.429435632,0.646802524,0.964936376,0.163255379,-0.205537006,0,0,0,-1,-1,17066.2221,walking,2,2023-02-14T17:51:37.892-08:00,2023-02-14T17:43:35.488-08:00,214,1.090328,0.7094391,1.921366,153.8174,0,0,2023-02-14T17:52:08.639-08:00,698118728.7,0,-6.669998,99.35678,1,0.73,0
2023-02-14T17:52:09.294-08:00,1676425928,34.06842196,-118.442649,127.3273,1.549788,1.640551,268.2185059,47.00192876,9.618488537,14.55697467,-9999,17097.61492,1.089431763,0.067123413,0.031494141,17097.60491,-1.067430971,1.360172345,-0.231772815,0.746894956,0.312507927,-2.367398739,-0.017777085,-0.117322326,0.251926363,XArbitraryZVertical,0.240378746,0.583505094,-0.455498818,0.627901741,0.951752186,0.229703292,-0.203479722,0,0,0,-1,-1,17066.2221,walking,2,2023-02-14T17:51:37.892-08:00,2023-02-14T17:43:35.488-08:00,214,1.090328,0.7094391,1.921366,153.8174,0,0,2023-02-14T17:52:08.639-08:00,698118728.7,0,-6.669998,99.35678,1,0.73,0
2023-02-14T17:52:09.329-08:00,1676425929,34.06842143,-118.4426694,127.3301,1.495995,1.399493,268.2185059,42.68153554,9.560376412,14.59520593,-9999,17097.64995,1.548126221,0.095581055,-0.209152222,17097.63493,-1.117349194,1.359388523,-0.285860044,1.406191587,0.317349344,-1.778710961,0.384129882,-0.207123071,0.154110551,XArbitraryZVertical,0.235832876,0.586278274,-0.483981303,0.605328555,0.93805939,0.28198269,-0.201321274,0,0,0,-1,-1,17066.2221,walking,2,2023-02-14T17:51:37.892-08:00,2023-02-14T17:43:35.488-08:00,214,1.090328,0.7094391,1.921366,153.8174,0,0,2023-02-14T17:52:08.639-08:00,698118728.7,0,-6.669998,99.35678,1,0.73,0
2023-02-14T17:52:09.364-08:00,1676425929,34.06842143,-118.4426694,127.3301,1.495995,1.399493,268.2185059,42.68153554,9.560376412,14.59520593,-9999,17097.68498,0.953140259,-0.069442749,-0.138580322,17097.66496,-1.160560816,1.343502717,-0.321982814,0.557944715,-0.513188004,-1.213026524,0.563978255,-0.263027132,-0.035002872,XArbitraryZVertical,0.231869307,0.582542721,-0.50702252,0.591446238,0.924211323,0.316448092,-0.21376121,0,0,0,-1,-1,17066.2221,walking,2,2023-02-14T17:51:37.892-08:00,2023-02-14T17:43:35.488-08:00,214,1.090328,0.7094391,1.921366,153.8174,0,0,2023-02-14T17:52:08.639-08:00,698118728.7,0,-6.669998,99.35678,1,0.73,0
2023-02-14T17:52:09.399-08:00,1676425929,34.06842143,-118.4426694,127.3301,1.495995,1.399493,268.2185059,42.68153554,9.560376412,14.59520593,-9999,17097.72001,0.671081543,-0.260101318,0.095046997,17097.69499,-1.164296986,1.322610192,-0.355574516,-0.871158004,-0.673848629,-1.064507484,-0.041733742,-0.457626104,0.144144177,XArbitraryZVertical,0.215767203,0.581639475,-0.517796321,0.589089901,0.908722818,0.348129004,-0.230280071,0,0,0,-1,-1,17066.2221,walking,2,2023-02-14T17:51:37.892-08:00,2023-02-14T17:43:35.488-08:00,214,1.090328,0.7094391,1.921366,153.8174,0,0,2023-02-14T17:52:08.639-08:00,698118728.7,0,-6.669998,99.35678,1,0.73,0
2023-02-14T17:52:09.435-08:00,1676425929,34.06842143,-118.4426694,127.3301,1.495995,1.399493,268.2185059,42.68153554,9.560376412,14.59520593,-9999,17097.75504,0.796966553,-0.138031006,-0.027740479,17097.72501,-1.131854276,1.318488189,-0.396943283,-1.540130019,-0.367465764,-1.109290957,-0.221966028,-0.646702409,0.325276405,XArbitraryZVertical,0.190428718,0.590442355,-0.51746274,0.58936156,0.893047571,0.38660109,-0.230229452,0,0,0,-1,-1,17066.2221,walking,2,2023-02-14T17:51:37.892-08:00,2023-02-14T17:43:35.488-08:00,214,1.090328,0.7094391,1.921366,153.8174,0,0,2023-02-14T17:52:08.639-08:00,698118728.7,0,-6.669998,99.35678,1,0.73,0
2023-02-14T17:52:09.469-08:00,1676425929,34.06842143,-118.4426694,127.3301,1.495995,1.399493,268.2185059,42.68153554,9.560376412,14.59520593,-9999,17097.79007,0.717956543,-0.102767944,-0.072433472,17097.78506,-1.099788125,1.321954442,-0.449544435,0.227204025,-0.04298548,-0.290455014,-0.129968643,-0.519363642,0.135707021,XArbitraryZVertical,0.162740426,0.602170535,-0.518812059,0.584585521,0.872903764,0.434555262,-0.221812397,0,0,0,-1,-1,17066.2221,walking,2,2023-02-14T17:51:37.892-08:00,2023-02-14T17:43:35.488-08:00,214,1.090328,0.7094391,1.921366,153.8174,0,0,2023-02-14T17:52:08.639-08:00,698118728.7,0,-6.669998,99.35678,1,0.73,0
2023-02-14T17:52:09.504-08:00,1676425929,34.06842143,-118.4426694,127.3301,1.495995,1.399493,268.2185059,42.68153554,9.560376412,14.59520593,-9999,17097.8251,0.641067505,-0.111862183,-0.013931274,17097.81509,-1.108221084,1.316965673,-0.450646078,0.149399251,-0.024050005,0.071823381,-0.223754704,-0.54646337,0.19157435,XArbitraryZVertical,0.163576557,0.600183907,-0.52191122,0.583635674,0.871322334,0.435547203,-0.226043969,0,0,0,-1,-1,17066.2221,walking,2,2023-02-14T17:51:37.892-08:00,2023-02-14T17:43:35.488-08:00,214,1.090328,0.7094391,1.921366,153.8174,0,0,2023-02-14T17:52:08.639-08:00,698118728.7,0,-6.669998,99.35678,1,0.73,0
2023-02-14T17:52:09.540-08:00,1676425929,34.06842143,-118.4426694,127.3301,1.495995,1.399493,268.2185059,42.68153554,9.560376412,14.59520593,-9999,17097.86013,0.589324951,-0.058746338,-0.066558838,17097.84512,-1.105655032,1.317379729,-0.444094875,-0.200560898,-0.037069801,0.376080155,-0.247740388,-0.535429955,0.201369241,XArbitraryZVertical,0.165297376,0.599566453,-0.5197662,0.585696006,0.874159336,0.42964074,-0.2263937,0,0,0,-1,-1,17066.2221,walking,2,2023-02-14T17:51:37.892-08:00,2023-02-14T17:43:35.488-08:00,214,1.090328,0.7094391,1.921366,153.8174,0,0,2023-02-14T17:52:08.639-08:00,698118728.7,0,-6.669998,99.35678,1,0.73,0
2023-02-14T17:52:09.575-08:00,1676425929,34.06842143,-118.4426694,127.3301,1.495995,1.399493,268.2185059,42.68153554,9.560376412,14.59520593,-9999,17097.89516,0.809432983,0.088027954,0.006546021,17097.87514,-1.090072047,1.322097314,-0.432706837,-0.470489204,-0.064543366,0.587648928,-0.290685058,-0.434313834,0.148429692,XArbitraryZVertical,0.165981075,0.600601105,-0.512395643,0.590914007,0.879903197,0.419329703,-0.223457187,0,0,0,-1,-1,17066.2221,walking,2,2023-02-14T17:51:37.892-08:00,2023-02-14T17:43:35.488-08:00,214,1.090328,0.7094391,1.921366,153.8174,0,0,2023-02-14T17:52:08.639-08:00,698118728.7,0,-6.669998,99.35678,1,0.73,0
2023-02-14T17:52:09.610-08:00,1676425929,34.06842143,-118.4426694,127.3301,1.495995,1.399493,268.2185059,42.68153554,9.560376412,14.59520593,-9999,17097.93019,1.295181274,0.306167603,-0.048294067,17097.90517,-1.067600818,1.331195585,-0.415278379,-0.56080693,0.043540955,0.899563253,-0.004984379,-0.292986304,0.238185883,XArbitraryZVertical,0.167866198,0.602701371,-0.501199488,0.597805201,0.888864934,0.403444678,-0.217143998,0,0,0,-1,-1,17066.2221,walking,2,2023-02-14T17:51:37.892-08:00,2023-02-14T17:43:35.488-08:00,214,1.090328,0.7094391,1.921366,153.8174,0,0,2023-02-14T17:52:08.639-08:00,698118728.7,0,-6.669998,99.35678,1,0.73,0
2023-02-14T17:52:09.645-08:00,1676425929,34.06842143,-118.4426694,127.3301,1.495995,1.399493,268.2185059,42.68153554,9.560376412,14.59520593,-9999,17097.96522,0.763549805,0.485656738,-0.253112793,17097.9352,-1.040298261,1.340250787,-0.3860096,-0.612205505,-0.251636684,1.395283461,0.393273771,-0.070327073,0.163400605,XArbitraryZVertical,0.172506102,0.603650807,-0.485669476,0.608253556,0.901907384,0.376494646,-0.211694703,0,0,0,-1,-1,17066.2221,walking,2,2023-02-14T17:51:37.892-08:00,2023-02-14T17:43:35.488-08:00,214,1.090328,0.7094391,1.921366,153.8174,0,0,2023-02-14T17:52:08.639-08:00,698118728.7,0,-6.669998,99.35678,1,0.73,0
2023-02-14T17:52:09.680-08:00,1676425929,34.06842143,-118.4426694,127.3301,1.495995,1.399493,268.2185059,42.68153554,9.560376412,14.59520593,-9999,17098.00025,0.59211731,0.35484314,-0.069595337,17097.99525,-0.974642611,1.334071275,-0.325916905,-0.802736819,-0.340786338,0.775284946,-0.369407952,0.147748411,0.08060348,XArbitraryZVertical,0.173230239,0.599085986,-0.451705436,0.638004191,0.920936823,0.320177555,-0.222174525,0,0,0,-1,-1,17066.2221,walking,2,2023-02-14T17:51:37.892-08:00,2023-02-14T17:43:35.488-08:00,214,1.090328,0.7094391,1.921366,153.8174,0,0,2023-02-14T17:52:08.639-08:00,698118728.7,0,-6.669998,99.35678,1,0.73,0
2023-02-14T17:52:09.715-08:00,1676425929,34.06842143,-118.4426694,127.3301,1.495995,1.399493,268.2185059,42.68153554,9.560376412,14.59520593,-9999,17098.03528,0.757965088,0.209213257,-0.095016479,17098.02527,-0.943091979,1.337081352,-0.309976149,-0.969656765,-0.246117815,0.774954855,-0.15034157,-0.142072082,0.202504367,XArbitraryZVertical,0.170279723,0.600605572,-0.437442044,0.647241879,0.92644918,0.305035919,-0.220555529,0,0,0,-1,-1,17066.2221,walking,2,2023-02-14T17:51:37.892-08:00,2023-02-14T17:43:35.488-08:00,214,1.090328,0.7094391,1.921366,153.8174,0,0,2023-02-14T17:52:08.639-08:00,698118728.7,0,-6.669998,99.35678,1,0.73,0
2023-02-14T17:52:09.750-08:00,1676425929,34.06842143,-118.4426694,127.3301,1.495995,1.399493,268.2185059,42.68153554,9.560376412,14.59520593,-9999,17098.07031,0.503646851,0.477111816,-0.225997925,17098.0553,-0.906644643,1.339208907,-0.293809197,-0.960729957,-0.305525631,0.758269131,-0.318145871,0.064815581,0.035208464,XArbitraryZVertical,0.165722866,0.60223941,-0.421363459,0.657492493,0.931594908,0.289600283,-0.219687253,0,0,0,-1,-1,17066.2221,walking,2,2023-02-14T17:51:37.892-08:00,2023-02-14T17:43:35.488-08:00,214,1.090328,0.7094391,1.921366,153.8174,0,0,2023-02-14T17:52:08.639-08:00,698118728.7,0,-6.669998,99.35678,1,0.73,0
2023-02-14T17:52:09.785-08:00,1676425929,34.06842143,-118.4426694,127.3301,1.495995,1.399493,268.2185059,42.68153554,9.560376412,14.59520593,-9999,17098.10534,0.685455322,0.496429443,-0.157501221,17098.08533,-0.876351328,1.340598937,-0.280293862,-0.695050061,-0.161904007,0.554180443,-0.412080705,0.224353731,0.007213771,XArbitraryZVertical,0.161868866,0.603461578,-0.407806826,0.665827386,0.935624957,0.276638061,-0.219265193,0,0,0,-1,-1,17066.2221,walking,2,2023-02-14T17:51:37.892-08:00,2023-02-14T17:43:35.488-08:00,214,1.090328,0.7094391,1.921366,153.8174,0,0,2023-02-14T17:52:08.639-08:00,698118728.7,0,-6.669998,99.35678,1,0.73,0
2023-02-14T17:52:09.820-08:00,1676425929,34.06842143,-118.4426694,127.3301,1.495995,1.399493,268.2185059,42.68153554,9.560376412,14.59520593,-9999,17098.14038,1.290161133,0.553909302,-0.111938477,17098.11535,-0.856119508,1.343943367,-0.269908328,-0.443875402,0.085482545,0.469160795,-0.214217901,0.222416341,0.084155202,XArbitraryZVertical,0.160272802,0.604919796,-0.398107715,0.670741971,0.939101875,0.266643077,-0.216769338,0,0,0,-1,-1,17066.2221,walking,2,2023-02-14T17:51:37.892-08:00,2023-02-14T17:43:35.488-08:00,214,1.090328,0.7094391,1.921366,153.8174,0,0,2023-02-14T17:52:08.639-08:00,698118728.7,0,-6.669998,99.35678,1,0.73,0
2023-02-14T17:52:09.855-08:00,1676425929,34.06842143,-118.4426694,127.3301,1.495995,1.399493,268.2185059,42.68153554,9.560376412,14.59520593,-9999,17098.17541,1.365036011,0.649291992,-0.498550415,17098.14538,-0.84079268,1.359452303,-0.255621333,-0.340365201,0.501421571,0.69863677,0.344181836,0.301062703,0.091019392,XArbitraryZVertical,0.163943217,0.60962585,-0.387970348,0.671534051,0.945979238,0.252846599,-0.202957883,0,0,0,-1,-1,17066.2221,walking,2,2023-02-14T17:51:37.892-08:00,2023-02-14T17:43:35.488-08:00,214,1.090328,0.7094391,1.921366,153.8174,0,0,2023-02-14T17:52:08.639-08:00,698118728.7,0,-6.669998,99.35678,1,0.73,0
2023-02-14T17:52:09.890-08:00,1676425929,34.06842143,-118.4426694,127.3301,1.495995,1.399493,268.2185059,42.68153554,9.560376412,14.59520593,-9999,17098.21044,1.230270386,0.709777832,-0.270904541,17098.20543,-0.7829667,1.374611474,-0.23036086,-1.156370878,0.192887112,0.168739155,0.105455577,0.475101292,-0.142587423,XArbitraryZVertical,0.158367155,0.616465787,-0.36037478,0.681923534,0.954908133,0.228328869,-0.18977955,0,0,0,-1,-1,17066.2221,walking,2,2023-02-14T17:51:37.892-08:00,2023-02-14T17:43:35.488-08:00,214,1.090328,0.7094391,1.921366,153.8174,0,0,2023-02-14T17:52:08.639-08:00,698118728.7,0,-6.669998,99.35678,1,0.73,0
2023-02-14T17:52:09.925-08:00,1676425929,34.06842143,-118.4426694,127.3301,1.495995,1.399493,268.2185059,42.68153554,9.560376412,14.59520593,-9999,17098.24547,1.545028687,0.651657104,-0.302841187,17098.23546,-0.757692452,1.387644475,-0.235674409,-0.496640861,0.250018507,-0.152676269,0.533682644,0.392431945,-0.087522909,XArbitraryZVertical,0.150895305,0.623444551,-0.352220039,0.681533872,0.956093848,0.233498812,-0.177094996,0,0,0,-1,-1,17066.2221,walking,2,2023-02-14T17:51:37.892-08:00,2023-02-14T17:43:35.488-08:00,214,1.090328,0.7094391,1.921366,153.8174,0,0,2023-02-14T17:52:08.639-08:00,698118728.7,0,-6.669998,99.35678,1,0.73,0
2023-02-14T17:52:09.960-08:00,1676425929,34.06842143,-118.4426694,127.3301,1.495995,1.399493,268.2185059,42.68153554,9.560376412,14.59520593,-9999,17098.2805,1.053070068,0.713394165,-0.294006348,17098.26548,-0.745612429,1.392903112,-0.249119323,-0.537939131,-0.116419613,-0.70199281,0.484137177,0.496811867,-0.165755987,XArbitraryZVertical,0.143084314,0.627518921,-0.351468782,0.679865079,0.953835726,0.24655056,-0.171493769,0,0,0,-1,-1,17066.2221,walking,2,2023-02-14T17:51:37.892-08:00,2023-02-14T17:43:35.488-08:00,214,1.090328,0.7094391,1.921366,153.8174,0,0,2023-02-14T17:52:08.639-08:00,698118728.7,0,-6.669998,99.35678,1,0.73,0
2023-02-14T17:52:09.995-08:00,1676425929,34.06842143,-118.4426694,127.3301,1.495995,1.399493,268.2185059,42.68153554,9.560376412,14.59520593,-9999,17098.31553,0.867965698,0.438827515,-0.268753052,17098.29551,-0.730599901,1.394028856,-0.287006345,-0.832869112,0.024397556,-1.53597784,-0.015103698,0.318617493,-0.09872447,XArbitraryZVertical,0.124539603,0.63258376,-0.356840388,0.676012161,0.94415015,0.283082306,-0.168655351,0,0,0,-1,-1,17066.2221,walking,2,2023-02-14T17:51:37.892-08:00,2023-02-14T17:43:35.488-08:00,214,1.090328,0.7094391,1.921366,153.8174,0,0,2023-02-14T17:52:08.639-08:00,698118728.7,0,-6.669998,99.35678,1,0.73,0
2023-02-14T17:52:10.030-08:00,1676425929,34.06842143,-118.4426694,127.3301,1.495995,1.399493,268.2185059,42.68153554,9.560376412,14.59520593,-9999,17098.35056,0.904556274,0.648452759,-0.504699707,17098.32554,-0.71646377,1.404232105,-0.340577133,-0.478081554,0.363339007,-1.707114935,-0.059903562,0.129012048,-0.131356061,XArbitraryZVertical,0.1019961,0.641452033,-0.366317269,0.666294015,0.92951715,0.334031135,-0.156272173,0,0,0,-1,-1,17066.2221,walking,2,2023-02-14T17:51:37.892-08:00,2023-02-14T17:43:35.488-08:00,214,1.090328,0.7094391,1.921366,153.8174,0,0,2023-02-14T17:52:08.639-08:00,698118728.7,0,-6.669998,99.35678,1,0.73,0
2023-02-14T17:52:10.065-08:00,1676425929,34.06842143,-118.4426694,127.3301,1.495995,1.399493,268.2185059,42.68153554,9.560376412,14.59520593,-9999,17098.38559,0.558685303,0.558288574,-0.429779053,17098.35556,-0.725883255,1.413733468,-0.38843699,0.544274628,0.417668551,-1.527375698,-0.00955385,0.269710392,-0.359934688,XArbitraryZVertical,0.089041171,0.647834182,-0.382065365,0.652999596,0.914110005,0.378742307,-0.144765079,0,0,0,-1,-1,17066.2221,walking,2,2023-02-14T17:51:37.892-08:00,2023-02-14T17:43:35.488-08:00,214,1.090328,0.7094391,1.921366,153.8174,0,0,2023-02-14T17:52:08.639-08:00,698118728.7,0,-6.669998,99.35678,1,0.73,0
2023-02-14T17:52:10.100-08:00,1676425929,34.06842143,-118.4426694,127.3301,1.495995,1.399493,268.2185059,42.68153554,9.560376412,14.59520593,-9999,17098.42062,0.043685913,0.353988647,-0.173171997,17098.41562,-0.80945021,1.392128702,-0.47126566,1.35817349,0.224945903,-1.856912971,-0.700892329,-0.034489274,-0.083795533,XArbitraryZVertical,0.080830942,0.64365616,-0.431415598,0.626939806,0.876810789,0.454014331,-0.158346221,0,0,0,-1,-1,17066.2221,walking,2,2023-02-14T17:51:37.892-08:00,2023-02-14T17:43:35.488-08:00,214,1.090328,0.7094391,1.921366,153.8174,0,0,2023-02-14T17:52:08.639-08:00,698118728.7,0,-6.669998,99.35678,1,0.73,0
2023-02-14T17:52:10.136-08:00,1676425929,34.06842143,-118.4426694,127.3301,1.495995,1.399493,268.2185059,42.68153554,9.560376412,14.59520593,-9999,17098.45565,0.045166016,0.261657715,-0.131866455,17098.44564,-0.87456441,1.374067845,-0.52631124,1.683270812,0.644005716,-2.490724802,-0.912974894,-0.218137085,0.047915533,XArbitraryZVertical,0.077153729,0.639955196,-0.465595005,0.606404033,0.847987592,0.502347231,-0.169009298,0,0,0,-1,-1,17066.2221,walking,2,2023-02-14T17:51:37.892-08:00,2023-02-14T17:43:35.488-08:00,214,1.090328,0.7094391,1.921366,153.8174,0,0,2023-02-14T17:52:08.639-08:00,698118728.7,0,-6.669998,99.35678,1,0.73,0
2023-02-14T17:52:10.170-08:00,1676425929,34.06842143,-118.4426694,127.3301,1.495995,1.399493,268.2185059,42.68153554,9.560376412,14.59520593,-9999,17098.49068,0.553405762,0.164382935,-0.160842896,17098.47567,-0.955292196,1.352273321,-0.596147665,1.783349156,0.702293694,-2.866963625,-0.545359194,-0.337169886,0.04006505,XArbitraryZVertical,0.071550435,0.636540647,-0.505956776,0.577671439,0.807825565,0.561458826,-0.179393083,0,0,0,-1,-1,17066.2221,walking,2,2023-02-14T17:51:37.892-08:00,2023-02-14T17:43:35.488-08:00,214,1.090328,0.7094391,1.921366,153.8174,0,0,2023-02-14T17:52:08.639-08:00,698118728.7,0,-6.669998,99.35678,1,0.73,0
2023-02-14T17:52:10.205-08:00,1676425930,34.06842141,-118.4426796,127.4673,1.169421,1.589942,270,61.13760419,9.449502295,14.66723354,-9999,17098.52571,1.389083862,0.13822937,-0.157562256,17098.50569,-1.047254556,1.318689235,-0.658502057,2.117761374,0.669970393,-2.110440254,-0.012078285,-0.47979176,0.009559512,XArbitraryZVertical,0.068541764,0.629807748,-0.545521888,0.548680227,0.765908182,0.611932814,-0.197288454,0,0,0,-1,-1,17066.2221,walking,2,2023-02-14T17:51:37.892-08:00,2023-02-14T17:43:35.488-08:00,214,1.090328,0.7094391,1.921366,153.8174,0,0,2023-02-14T17:52:08.639-08:00,698118728.7,0,-6.669998,99.35678,1,0.73,0
2023-02-14T17:52:10.240-08:00,1676425930,34.06842141,-118.4426796,127.4673,1.169421,1.589942,270,61.13760419,9.449502295,14.66723354,-9999,17098.56074,2.034881592,0.449508667,-0.331085205,17098.53572,-1.139160684,1.278664819,-0.68118004,1.930663943,0.365246952,-0.656021595,0.787958086,-0.45553118,0.05030629,XArbitraryZVertical,0.077535792,0.618164201,-0.575753475,0.529498816,0.743917406,0.629710138,-0.223722443,0,0,0,-1,-1,17066.2221,walking,2,2023-02-14T17:51:37.892-08:00,2023-02-14T17:43:35.488-08:00,214,1.090328,0.7094391,1.921366,153.8174,0,0,2023-02-14T17:52:08.639-08:00,698118728.7,0,-6.669998,99.35678,1,0.73,0
